Time (s),Acceleration x (m/s^2),Acceleration y (m/s^2),Acceleration z (m/s^2),Absolute acceleration (m/s^2)
0.021508125,-1.85464325,5.283562775,7.369026031,9.255175948
0.031511125,-1.827848969,5.212161255,7.653733978,9.438606921
0.041513125,-1.852697296,5.155129852,7.943531342,9.649224904
0.051516042,-1.858385468,5.021607513,8.137378235,9.740999081
0.061518042,-1.831740875,4.873116302,8.307274933,9.803741834
0.071521042,-1.848955078,4.797074432,8.374784546,9.826880186
0.081523042,-1.855840759,4.783752136,8.325836334,9.779978532
0.091526042,-1.877096558,4.749922485,8.224197693,9.681047608
0.101528042,-1.878892822,4.687053223,8.149053955,9.586750571
0.111531042,-1.856289825,4.646038513,8.217012634,9.620331721
0.121533042,-1.794468384,4.640500031,8.32164505,9.695572889
0.131536042,-1.654210052,4.570445709,8.46325058,9.759712867
0.141538042,-1.439406738,4.481979675,8.617879028,9.819769474
0.151541042,-1.274898834,4.357588348,8.728498993,9.83873152
0.161543042,-1.294508057,4.283941498,8.76038269,9.837286757
0.171546042,-1.338366852,4.2228685,8.739575958,9.798164733
0.181548042,-1.32220047,4.163442078,8.67146759,9.709624822
0.191551042,-1.300345917,4.097878418,8.65155899,9.660899544
0.201553042,-1.275647278,4.089645538,8.628955994,9.633865172
0.211556042,-1.174008636,4.138444061,8.632548523,9.644994014
0.221558042,-1.076860657,4.134252777,8.733738098,9.722646557
0.231561042,-0.960552521,4.124073944,8.87983429,9.837789592
0.241563042,-0.892144775,4.101920013,9.056167603,9.98177548
0.251566042,-0.880469055,4.066294098,9.227411499,10.12201049
0.261568042,-0.819246368,4.01569931,9.335337067,10.19536776
0.271571042,-0.792601776,3.910019073,9.287586365,10.10820099
0.281573042,-0.83780777,3.796405334,9.139993286,9.93247666
0.291576042,-0.894988861,3.652853851,8.908275146,9.669628349
0.301578042,-0.910706177,3.566333771,8.749455414,9.492159519
0.311580042,-0.817150726,3.492088165,8.689579926,9.400596489
0.321583042,-0.640667725,3.437900848,8.613987122,9.29679469
0.331585042,-0.383652191,3.368744659,8.51818634,9.168158382
0.341588042,-0.198487244,3.296894073,8.375982056,9.003664982
0.351590042,-0.103584595,3.233126678,8.262667694,8.873303517
0.361593042,-0.080382843,3.207978973,8.176446991,8.783614056
0.371595042,-0.066162415,3.216211853,8.048014069,8.667117548
0.381598042,-0.055384827,3.221151581,7.931556244,8.560868498
0.391600042,0.002095642,3.19780014,7.844437408,8.471194035
0.401603042,0.079484711,3.241359558,7.733667755,8.38584203
0.411605042,0.074395294,3.257825317,7.638765106,8.304799384
0.421608042,-0.009430389,3.346141663,7.620353394,8.322652149
0.431610042,-0.157771912,3.458557892,7.709567871,8.45126922
0.441613042,-0.260308685,3.521576843,7.885601807,8.640137726
0.451615042,-0.278421021,3.51499054,8.039332123,8.778584039
0.461618042,-0.326620789,3.525768127,8.233628082,8.962720202
0.471620042,-0.483943634,3.56528595,8.473429413,9.20567604
0.481623042,-0.650397491,3.663781128,8.822952576,9.57553138
0.491625042,-0.747844849,3.768563232,9.255702667,10.02144564
0.501628042,-0.812510376,3.819607086,9.71868988,10.47389633
0.511630042,-0.762963409,3.841311951,10.16341507,10.89186837
0.521633042,-0.641865234,3.901786194,10.63837738,11.34949337
0.531635042,-0.579744415,4.058360596,11.16947296,11.89804692
0.541638042,-0.547411652,4.311184845,11.74263107,12.52099672
0.551640042,-0.486188965,4.566254425,12.38135284,13.20548967
0.561643042,-0.38260437,4.815785522,12.95166687,13.82330825
0.571645042,-0.227227478,5.003195801,13.46360229,14.36496388
0.581648042,-0.050145721,5.051395569,13.9917041,14.87571496
0.591650042,0.05613327,4.964875488,14.52474564,15.34996337
0.601652042,0.15567627,4.726571045,15.06976227,15.79438013
0.611655042,0.177381134,4.348906403,15.45850388,16.05957014
0.621657042,0.205821991,3.881278839,15.58588898,16.06320713
0.631660042,0.245190125,3.348985748,15.42916489,15.79034366
0.641662042,0.295485535,2.86668869,14.94402374,15.21936468
0.651665042,0.339194641,2.464774475,14.15965485,14.37657788
0.661667042,0.421523438,2.144141235,13.02052368,13.20261567
0.671670042,0.497714996,1.8791922,11.69218597,11.85269153
0.681672042,0.567769318,1.650617523,10.30337402,10.45018739
0.691675042,0.687819672,1.415157166,8.994046783,9.130643091
0.701677042,0.862805786,1.1665242,7.785160675,7.919213299
0.711680042,1.022224274,0.950822754,6.742728424,6.885738376
0.721682042,1.189426575,0.859512634,5.862558746,6.043433842
0.731685042,1.372795258,0.861009521,5.226231995,5.471691245
0.741687042,1.645528107,0.891546021,4.856650543,5.20477392
0.751690042,1.974244537,0.89513855,4.648134155,5.128748935
0.761692042,2.320175171,0.958905945,4.694238281,5.323399898
0.771695042,2.5613237,1.032103729,4.960983582,5.677761469
0.781697042,2.580483856,1.095122681,5.433700562,6.114187796
0.791700042,2.487377472,1.173409882,5.956712952,6.560972994
0.801702042,1.974843292,1.435514832,6.816075897,7.240138085
0.811705042,1.307980042,1.801653442,7.669451294,7.986065994
0.821707042,0.655935974,2.081870728,8.231382751,8.515873398
0.831710042,0.036823425,2.341580658,8.495283966,8.812162368
0.841712042,-0.418080597,2.599194946,8.40711731,8.809666691
0.851715042,-0.637973328,2.724484406,7.955656128,8.433403208
0.861717042,-0.700692902,2.703378296,7.267686768,7.785788059
0.871720042,-0.728834381,2.567460938,6.524182892,7.048972807
0.881722042,-0.769699402,2.382146301,5.898034973,6.407329765
0.891725042,-0.722547455,2.210453339,5.415737915,5.893928737
0.901727042,-0.52765274,2.051932983,5.056035919,5.48200197
0.911730042,-0.048199768,1.846859436,4.856949921,5.196457979
0.921732042,0.398321686,1.762434998,4.978497162,5.296250681
0.931735042,0.656983795,1.881587219,5.657485199,5.99826116
0.941737042,0.696351929,2.015408936,6.733298035,7.062866388
0.951739042,0.663270721,2.023791504,8.005951538,8.284378078
0.961742042,0.62016037,2.008972321,9.105265503,9.344861077
0.971744042,0.50894165,2.22661972,10.10024643,10.35528053
0.981747042,0.266445923,2.702031097,10.79929276,11.13538008
0.991749042,-0.165256348,3.332969055,11.13968491,11.62878206
1.001752042,-0.702189789,3.954177246,11.33038834,12.02107683
1.011754042,-1.055904236,4.237687683,11.59039764,12.38588908
1.021757042,-0.960552521,4.168381805,12.21729401,12.94451007
1.031759042,-0.479602661,3.867507477,13.08039917,13.64860708
1.041762042,0.147742767,3.455414429,13.98436935,14.40570384
1.051764125,0.729732513,3.038381653,14.8357988,15.16130597
1.061767125,1.015787659,2.572849731,15.56897415,15.81279028
1.071769125,1.071172485,2.048490143,16.16263962,16.3271137
1.081772125,1.065783691,1.404678955,16.58236679,16.67584799
1.091774125,1.129700775,0.713117065,16.61484924,16.66847249
1.101777125,1.147513733,-0.007933502,16.16907623,16.20974636
1.111779125,1.049467621,-0.612675934,15.37138504,15.41934603
1.121782125,1.165626068,-1.152752838,14.34571793,14.43908398
1.131784125,0.963845673,-1.543889465,13.20029984,13.32518326
1.141787125,0.755179596,-1.502126312,12.35425919,12.46813537
1.151789125,0.39787262,-1.152902527,11.64323776,11.70694121
1.161792125,0.035476227,-0.669108582,11.02951401,11.04984815
1.171794125,-0.182021484,-0.245639191,10.38944504,10.3939424
1.181797125,-0.294587402,0.161364441,9.749675446,9.755459575
1.191799125,-0.266595612,0.658630371,9.185348969,9.212790178
1.201802125,-0.166304169,1.123114471,8.679101715,8.753048028
1.211804125,-0.021704865,1.433868256,8.12390625,8.249503139
1.221807125,0.175135803,1.618733826,7.503596191,7.678211221
1.231809125,0.433348846,1.712888031,6.875951385,7.099329834
1.241812125,0.708476715,1.767823792,6.351142731,6.630547051
1.251814125,0.982107697,1.827998657,5.995332642,6.344298866
1.261817125,1.147513733,1.875749359,5.734125824,6.141288333
1.271819125,1.105002136,1.915267181,5.567372589,5.99040196
1.281822125,0.920435944,1.973346405,5.48414566,5.900606069
1.291824125,0.650098114,2.057621155,5.586981812,5.9892235
1.301827125,0.481249237,2.109563141,5.936804352,6.31882136
1.311829125,0.519868927,2.054328003,6.38512207,6.727578398
1.321831125,0.683628387,1.830992432,6.794071655,7.069603293
1.331834125,0.863254852,1.585203552,7.200326843,7.423125076
1.341836125,0.970731354,1.467548218,7.563920746,7.765881417
1.351839125,0.907562714,1.543440399,7.877368927,8.078293109
1.361841125,0.749940491,1.797911224,8.169112244,8.398171846
1.371844125,0.549656982,2.174528046,8.50651062,8.797239223
1.381846125,0.346230011,2.60458374,9.002129974,9.377743639
1.391849125,0.123792572,2.934946747,9.565558319,10.00645506
1.401851125,-0.012424164,3.115770721,10.16461258,10.63144066
1.411854125,-0.165705414,3.1744487,10.87862778,11.33353983
1.421856125,-0.255219269,3.109483795,11.50821854,11.92363704
1.431859125,-0.298479309,2.905607758,11.92510162,12.2776095
1.441861125,-0.343086548,2.688110046,12.17897369,12.47682028
1.451864125,-0.362845459,2.545756073,12.25112366,12.51808938
1.461866125,-0.311053162,2.544558563,12.33450027,12.59807245
1.471869125,-0.171842651,2.615660706,12.24887833,12.52622174
1.481871125,-0.097597046,2.677931213,11.99410812,12.28981165
1.491874125,-0.067659302,2.774779816,11.71942932,12.0436292
1.501876125,-0.144150238,2.890339508,11.61794037,11.97294367
1.511879125,-0.264499969,3.014581146,11.7462236,12.12977447
1.521881125,-0.40490799,3.098556519,12.00922668,12.40913085
1.531884125,-0.604443054,3.207380219,12.3593486,12.783041
1.541886125,-0.875379639,3.386407928,12.79239807,13.26195674
1.551889125,-1.220711517,3.561394043,13.21197556,13.7379024
1.561891125,-1.553020477,3.75134903,13.68574036,14.27529269
1.571894125,-1.908980255,3.937861176,14.24138489,14.89859053
1.581896125,-2.171234894,4.030518494,14.85929993,15.54857339
1.591899125,-2.227966919,4.044289856,15.46134796,16.13608992
1.601901125,-1.98562088,3.93845993,15.89933716,16.49979027
1.611904125,-1.499431915,3.720662842,16.03480545,16.52896288
1.621906125,-1.0086026,3.492088165,15.80084198,16.21353034
1.631908125,-0.611328735,3.422931976,15.13143402,15.52580052
1.641911125,-0.214653625,3.548969879,13.94574966,14.39184481
1.651913125,0.630189514,3.498375092,12.35830078,12.85936878
1.661916125,1.900597687,2.982697449,10.75513458,11.32173465
1.671918125,2.925366669,2.229463806,9.429940338,10.12186019
1.681921125,3.069067841,1.835183716,8.688681793,9.395757978
1.691923125,2.400857391,1.844464417,8.362360382,8.893550267
1.701926125,1.554068298,1.837129669,8.114625549,8.463883358
1.711928125,0.697699127,1.58774826,7.975415039,8.161799658
1.721931125,-0.061522064,1.275198212,7.904761963,8.007195335
1.731933125,-0.791104889,0.962348785,7.861501923,7.959596385
1.741936125,-1.44269989,0.723295898,7.611671448,7.780879266
1.751938125,-1.911824341,0.735570374,7.127129059,7.415666167
1.761941125,-2.277214508,0.960103455,6.48107254,6.936267428
1.771943125,-2.421065369,1.387464752,5.788762207,6.426226252
1.781946125,-2.380050659,1.906136169,5.178630981,6.009676787
1.791948125,-2.56012619,1.925446014,4.524491272,5.543700004
1.801951125,-2.914888458,2.216590576,4.069736938,5.4747244
1.811953125,-3.000809784,2.405198364,3.486399994,5.190840341
1.821956125,-2.652334442,2.551743622,2.928210754,4.703263944
1.831958125,-2.117496643,2.695744171,2.62449234,4.317266347
1.841961125,-1.699116669,2.749781799,2.47121109,4.068805924
1.851963125,-1.343755646,2.839595032,2.463277588,3.992081619
1.861966125,-1.085692291,2.951711884,2.568658447,4.060706467
1.871968125,-0.583935699,2.387834473,2.148631897,3.264866521
1.881971125,-0.302670593,2.582878876,2.117646332,3.353699265
1.891973125,-0.407303009,3.462000732,3.419339447,4.8829527
1.901976125,0.279019775,3.556604004,4.182153168,5.497061869
1.911978125,1.468895416,3.054847412,4.433779907,5.581052833
1.921981125,1.979034576,2.35774704,4.991071014,5.863986599
1.931983125,1.948797455,1.968556366,6.077212372,6.678737598
1.941985125,1.918859711,1.824705505,7.200626221,7.672065611
1.951988125,1.431473236,1.72935379,8.559500427,8.84900151
1.961990125,0.897084503,1.426832886,9.891131287,10.03369776
1.971993125,0.538130951,0.817001038,10.44018951,10.48592546
1.981995125,0.18022522,0.229622498,10.40635986,10.41045307
1.991998125,-0.008831635,-0.053289185,10.14066238,10.14080625
2.002000125,0.219443665,0.167202301,9.674831085,9.678763798
2.012003125,0.855920105,1.047821045,9.961035919,10.05250042
2.022005125,1.29765152,2.383942566,11.94590836,12.25037992
2.032008125,1.819017334,3.590733032,15.27259048,15.79411941
2.042010125,2.529440002,3.642076263,18.71632919,19.23444215
2.052013375,2.784210205,2.348017273,21.29621429,21.60541031
2.062015375,2.258503418,0.675245819,22.52920029,22.65218886
2.072018375,1.063238983,-0.198636932,22.6523941,22.67820302
2.082020375,0.385747833,-1.550775146,20.96330658,21.02412728
2.092023375,-0.052989807,-2.890788574,18.05186096,18.28193509
2.102025375,-0.447269897,-2.955903168,15.2484906,15.53878629
2.112028375,-0.693208466,-2.120340729,12.90122177,13.09266611
2.122030375,-0.697549438,-0.952619019,11.09477829,11.15742638
2.132033375,-1.666933594,0.692759399,10.2360141,10.39396786
2.142035375,-2.951711884,2.252066803,9.597741394,10.29082348
2.152038375,-2.737058258,2.799478455,9.096583557,9.903352964
2.162040375,-2.417173462,2.574795685,8.635093231,9.329369511
2.172043375,-2.043999481,2.205363922,8.050409088,8.593640113
2.182045375,-1.365161133,2.400707703,7.402107239,7.900522386
2.192048375,-0.547261963,2.729573822,6.896309052,7.437011997
2.202050375,0.186362457,3.125799866,6.280040588,7.01742585
2.212053375,0.79215271,3.480412445,5.579647064,6.623687648
2.222055375,1.25079895,3.718267822,4.97759903,6.337705082
2.232058375,1.575174408,3.88112915,4.43812088,6.102561335
2.242060375,1.658251648,4.010909271,3.946243744,5.866006427
2.252062375,1.483564911,3.857029266,3.754642181,5.583455697
2.262065375,0.920585632,3.159330139,3.874692535,5.083511294
2.272067375,0.205372925,2.586770782,4.047882385,4.80821307
2.282070375,-0.242795105,2.452050934,4.244872742,4.908202098
2.292072375,-0.418080597,2.014211426,4.435127106,4.888986756
2.302075375,-0.442629547,1.538201294,4.432732086,4.712865146
2.312077375,-0.493224335,1.232686615,4.632117462,4.818640754
2.322080375,-0.642014923,1.242715759,5.420078888,5.597658508
2.332082375,-0.920136566,1.636696472,6.687642975,6.946221649
2.342085375,-1.136586456,2.305505676,8.934919739,9.297310145
2.352087375,-1.197060699,3.078797607,10.1961969,10.71794664
2.362090375,-0.679437103,3.597019958,9.863588562,10.52095845
2.372092375,-0.82134201,3.842060394,12.00593353,12.63243725
2.382095375,-1.035845947,3.840713196,12.90646088,13.50558355
2.392097375,-0.912053375,3.445834351,13.84905075,14.30041337
2.402100375,-0.952619019,3.049458618,14.72038879,15.06308491
2.412102375,-1.037342834,2.750979309,15.18936356,15.47128736
2.422105375,-1.071621552,2.685116272,15.37842041,15.64781251
2.432107375,-0.922830963,2.711910553,15.38276138,15.64721776
2.442110375,-0.625399475,2.712658997,15.35521866,15.60552413
2.452112375,-0.606538696,2.661764832,14.97830246,15.22505914
2.462115375,-0.889450378,2.456840973,14.30679886,14.54344124
2.472117375,-1.252744904,2.212698669,13.35417984,13.59409888
2.482120375,-1.590891724,2.204914856,12.25815903,12.55607617
2.492122375,-1.930385742,2.030228119,11.1676767,11.51369698
2.502125375,-2.229763184,1.695374451,9.915231171,10.3032979
2.512127375,-2.229164429,1.342707825,8.545279999,8.932740263
2.522130375,-2.078427887,1.141077118,7.505841522,7.871440556
2.532132375,-1.729204102,1.049018555,6.790928192,7.085710442
2.542135375,-1.264720001,1.047371979,6.205495605,6.419087198
2.552137375,-0.757275238,1.113833771,5.849984894,6.003033792
2.562139375,0.035925293,1.335223389,5.889802094,6.039360962
2.572142375,0.916394348,1.615590363,6.124514008,6.399967394
2.582144375,1.520987091,1.816173248,6.347550201,6.775195979
2.592147375,1.885329437,1.988914032,6.49978363,7.053894907
2.602149375,2.123484192,1.986519012,6.597680054,7.210050277
2.612152375,2.235750732,1.884131927,6.693780212,7.304466304
2.622154375,2.410437469,1.769620056,6.821315002,7.447959606
2.632157375,2.772983551,1.668729858,7.01695816,7.727341001
2.642159375,3.1147229,1.587598572,7.088958435,7.90413181
2.652162375,3.362607422,1.488953705,6.931186523,7.846365938
2.662164375,3.45646225,1.35962265,6.642137604,7.610104926
2.672167375,3.383713531,1.358574829,6.394702148,7.361213106
2.682169375,3.190315704,1.46500351,6.322252808,7.231544105
2.692172375,3.242557068,1.702709198,6.527176666,7.484479286
2.702174375,3.415148163,2.068847809,6.965914307,8.029155021
2.712177375,3.370391235,2.454595642,7.574848022,8.646554193
2.722179375,3.08673111,2.761307831,8.395142212,9.361150711
2.732182375,2.517464905,2.921774139,9.441166992,10.19853067
2.742184375,1.639989624,2.808010712,10.50650162,10.99823015
2.752187375,0.687819672,2.47944397,11.60791122,11.88967373
2.762189375,0.00119751,1.995350647,12.63642242,12.79299016
2.772192375,-0.151934052,1.824256439,13.53964417,13.66283132
2.782194375,0.033679962,1.562600555,14.217285,14.30293843
2.792197375,0.15328125,1.675016785,14.47579742,14.57319071
2.802199375,0.446521454,1.857936401,14.90720032,15.02916932
2.812202375,0.409997406,1.946851501,15.37273224,15.50094272
2.822204375,0.301772461,1.867366791,15.48290314,15.59802599
2.832207375,0.199385376,1.666933594,15.28456558,15.37648748
2.842209375,0.058079224,1.620380402,15.27453644,15.36035381
2.852212375,-0.029338989,1.626517639,15.88347015,15.9665602
2.862214375,0.33111145,1.374591522,17.09355377,17.15193042
2.872216375,0.776136017,1.239721985,18.51679413,18.57447072
2.882219375,0.614023132,1.454525299,19.83570145,19.89843512
2.892221375,0.769998779,1.502725067,20.61692688,20.68595549
2.902224375,1.276246033,1.195414124,20.35107971,20.42606825
2.912226375,1.738185425,0.858913879,19.56835739,19.66417129
2.922229375,2.041005707,0.84708847,18.63699417,18.76754685
2.932231375,2.160756683,1.336720276,17.55758881,17.74047957
2.942234375,2.164349213,1.95987442,16.46501083,16.72190471
2.952236375,2.133663025,2.506387939,15.14879791,15.5022765
2.962239375,2.124532013,3.004102936,13.8948555,14.37377056
2.972241375,2.208956451,3.237467651,12.60364059,13.19895608
2.982244375,2.121987305,3.099304962,11.23009689,11.84160452
2.992246375,1.778751068,2.817740479,9.93169693,10.47579213
3.002249375,1.177900543,2.433639221,8.654403076,9.06690367
3.012251375,0.443827057,1.918410645,7.376660156,7.63494577
3.022254375,-0.303269348,1.497036896,6.295907593,6.478544912
3.032256375,-0.947080536,1.197958832,5.372328186,5.58515685
3.042259375,-1.376387787,0.926273804,4.533023529,4.827082847
3.052261,-1.683399353,0.775088196,3.780238953,4.210083328
3.062264,-1.856738892,0.783470764,3.075205078,3.676709401
3.072266,-1.859582977,0.777034149,2.332150269,3.082329605
3.082269,-1.667682037,0.690214691,1.580114136,2.398816454
3.092271,-1.320404205,0.53244278,0.877475281,1.672401102
3.102274,-1.104104004,0.408949585,0.428858185,1.253078113
3.112276,-0.889600067,0.400417328,0.172142029,0.990633734
3.122279,-0.483045502,0.666114807,0.203127594,0.847527411
3.132281,-0.152532806,0.93016571,0.460891571,1.049235696
3.142284,-0.593515778,0.868493958,0.351319427,1.109039257
3.152286,-0.95366684,1.382225647,0.158370667,1.686745223
3.162288,-1.168021088,1.791624298,0.031284943,2.138964617
3.172291,-0.981958008,1.767674103,0.064515839,2.023135081
3.182293,-0.674347687,1.532213745,0.310005341,1.702506116
3.192296,-0.413739624,1.17939743,0.691112823,1.428214168
3.202298,-0.254919891,0.86235672,1.127006378,1.441799792
3.212301,-0.206121368,0.541124725,1.729653168,1.824007146
3.222303,-0.380957794,0.174087982,3.231629791,3.258660242
3.232306,-0.648152161,-0.259859619,5.537434845,5.58129133
3.242308,-0.265996857,-1.010099487,8.497529297,8.561486988
3.252311,0.878373413,-2.204316101,11.71463928,11.95254462
3.262313,2.230511627,-3.79460907,13.9267392,14.60576272
3.272316,2.858306122,-4.874912567,14.67772751,15.72801231
3.282318,2.40100708,-4.711302795,13.91895538,14.88954425
3.292321,0.543819122,-2.848576355,13.21047867,13.52504614
3.302323,-1.770817566,0.195643158,13.49339035,13.61049794
3.312326,-2.93928772,3.055745544,15.08353363,15.66811986
3.322328,-2.63616806,4.921316071,17.61566803,18.47919084
3.332331,-1.738634491,4.858746185,20.1919606,20.84095817
3.342333,-0.404758301,3.800147552,21.67851929,22.01279512
3.352336,0.802780609,2.868035889,21.78749268,21.99010968
3.362338,1.185235291,2.398462372,20.88142685,21.05211134
3.372341,0.928519135,2.428100739,19.14698364,19.32265001
3.382343,0.254620514,2.698139191,16.74777283,16.96563236
3.392346,-0.483494568,2.955304413,14.17252808,14.48544591
3.402348,-1.07880661,3.151246948,11.77780792,12.23972796
3.412351,-1.493743744,3.363655243,10.06970993,10.72121752
3.422353,-1.708996124,3.379372559,9.030570831,9.792447916
3.432356,-1.660646667,3.2142659,8.367000732,9.115698212
3.442358,-1.296753387,3.053500214,8.110284576,8.762542372
3.452361,-0.837658081,2.87252655,7.939489746,8.484608257
3.462363,-0.412392426,2.781515808,7.760911102,8.254613185
3.472365,0.029338989,2.742896118,7.563621368,8.045663931
3.482368,0.524658966,2.713706818,7.456294556,7.952094078
3.49237,0.95591217,2.644101563,7.230713654,7.758109376
3.502373,1.209335175,2.520009613,6.872358856,7.419046857
3.512375,1.308878174,2.309996338,6.596781921,7.111032054
3.522378,1.344803467,2.215842133,6.546486511,7.040947263
3.53238,1.304537201,2.167642365,6.760990448,7.218828338
3.542383,1.299298096,2.002685394,7.207511902,7.592572169
3.552385,1.375190277,1.822609863,7.741002502,8.07069853
3.562388,1.397643585,1.594035187,8.306975555,8.573225685
3.57239,1.427281952,1.288969574,8.671168213,8.881876745
3.582393,1.350192261,0.874930573,8.694070587,8.841684569
3.592395,1.232387238,0.548459473,8.627908173,8.732719252
3.602398,1.075513458,0.317789154,8.742719421,8.814355452
3.6124,0.954265594,0.123942261,8.969497833,9.020968678
3.622403,0.816102905,0.002095642,9.103169861,9.139678871
3.632405,0.580792236,0.032632141,9.357041931,9.375106302
3.642408,0.315843201,0.127983856,9.766889648,9.772833274
3.65241,0.107177124,0.143551483,10.14694931,10.14853065
3.662413,0.016166382,0.092956696,10.33001862,10.3304495
3.672415,-0.027991791,0.102237396,10.41234741,10.41288695
3.682418,-0.01287323,0.240699463,10.484198,10.48696856
3.69242,-0.000149689,0.317190399,10.51518356,10.5199665
3.702423,0.108524323,0.312100983,10.48764084,10.49284494
3.712425,0.380658417,0.280217285,10.34139496,10.35219166
3.722428,0.706231384,0.281265106,10.20772293,10.23598946
3.73243,1.022523651,0.397722931,10.16595978,10.22499273
3.742433,1.304387512,0.52540741,10.14096176,10.23799713
3.752435,1.466949463,0.7020401,10.08887009,10.21910469
3.762437,1.426683197,0.921184387,10.01657043,10.15951224
3.77244,1.3350737,1.12790451,9.961484985,10.11364294
3.782442,1.246757355,1.303639069,9.994715881,10.15619143
3.792445,1.23328537,1.376238098,10.09351044,10.26128535
3.802447,1.209035797,1.351389771,10.11596375,10.27719535
3.81245,1.178199921,1.364861755,10.03079086,10.19155376
3.822452,1.117725677,1.456022186,9.906998291,10.07561047
3.832455,1.104403381,1.572929077,9.857750702,10.04335908
3.842457,1.179247742,1.716181183,10.02944366,10.24332189
3.85246,1.287622375,1.841620331,10.44348267,10.68250284
3.862462,1.336720276,1.960622864,11.1344458,11.38449588
3.872465,1.28358078,1.992506561,11.84486847,12.07967595
3.882467,1.188977509,1.97394516,12.63986526,12.84820302
3.89247,1.12910202,1.890718231,13.31391357,13.49481313
3.902472,1.046922913,1.826202393,13.66029327,13.8215294
3.912475,0.88346283,1.836680603,13.89874741,14.047387
3.922477,0.682430878,2.043999481,14.15276917,14.31588352
3.93248,0.565823364,2.277962952,14.59225525,14.77982356
3.942482,0.489631805,2.33903595,15.07365417,15.2619094
3.952485,0.509839783,2.377056885,15.55939407,15.74817704
3.962487,0.589623871,2.377505951,16.002323,16.1887162
3.97249,0.705183563,2.286944275,16.40603348,16.57966623
3.982492,0.795894928,2.11315567,16.74073746,16.89234046
3.992495,0.901874542,1.888921967,16.96751587,17.09613988
4.002497,1.121617584,1.656754761,16.99056793,17.107959
4.0125,1.394949188,1.440005493,16.67143158,16.79154936
4.022502,1.753154297,1.289718018,15.93586121,16.08379914
4.032504,2.115700378,1.228345642,14.91378662,15.11310863
4.042507,2.419568481,1.269659729,13.84515884,14.11222062
4.05250925,2.640958099,1.380279694,12.8796666,13.21989574
4.06251225,2.693798218,1.518143005,11.97419952,12.36700292
4.07251425,2.510279846,1.771266632,11.06244553,11.48114068
4.08251725,2.292931824,2.135159912,10.27897476,10.74587206
4.09251925,2.148482208,2.315235443,9.449100494,9.963021184
4.10252225,2.045795746,2.209854584,8.495882721,9.013809446
4.11252425,1.876647491,2.023791504,7.621850281,8.106179098
4.12252725,1.545985107,1.830094299,6.808890839,7.218054416
4.13252925,1.138831787,1.645378418,6.070027313,6.391356629
4.14253225,0.709524536,1.517693939,5.297932892,5.556519854
4.15253425,0.298928375,1.411414948,4.529431,4.753650756
4.16253725,-0.082628174,1.30812973,3.671864319,3.898797043
4.17253925,-0.498014374,1.265917511,2.800975342,3.113844621
4.18254225,-0.808917847,1.402283936,2.056573334,2.617296734
4.19254425,-0.982257385,1.586401062,1.535506897,2.416460083
4.20254725,-0.893192596,1.804347839,1.210682373,2.349301162
4.21254925,-0.542771301,2.136806488,0.980161743,2.412728683
4.22255225,0.459244995,2.799029388,0.963097229,2.995501253
4.23255425,0.452958069,2.45714035,1.121318207,2.738624515
4.24255725,-0.452359314,1.808688812,1.309776306,2.278485932
4.25255925,-0.65638504,2.077829132,1.083746338,2.433664181
4.26256225,-0.407901764,2.14833252,0.895288239,2.362891765
4.27256425,-0.099243622,1.770817566,0.744851074,1.923654665
4.28256725,0.11930191,1.563498688,0.883163452,1.799649626
4.29256925,0.199535065,1.581311646,1.241218872,2.020144809
4.30257225,0.242495728,1.771715698,1.75390274,2.504786521
4.31257425,0.394729156,1.956132202,2.112706604,2.90616474
4.32257625,0.504450989,1.803300018,2.612966309,3.214646899
4.33257925,0.460143127,1.62636795,3.228785706,3.644428836
4.34258125,0.476459198,1.518143005,3.81092514,4.129760523
4.35258425,0.520916748,1.282982025,4.734654236,4.932985695
4.36258625,0.721200256,0.908909912,6.033952332,6.14449573
4.37258925,1.24735611,0.378113708,8.039481812,8.144454251
4.38259125,2.121987305,-0.033679962,9.762997742,9.991000419
4.39259425,2.795137482,-0.502954102,11.29985184,11.65128353
4.40259625,2.442321167,-1.002315674,13.0122908,13.27739738
4.41259925,1.561552734,-0.755778351,14.55603058,14.65904752
4.42260125,0.15447876,0.639470215,16.88009766,16.8929122
4.43260425,-1.6416362,2.44666214,20.26949936,20.48252253
4.44260625,-2.786605225,3.2235466,24.11006287,24.48369974
4.45260925,-2.409090271,2.515968018,26.99621109,27.22001514
4.46261125,-1.626517639,1.228944397,27.79869232,27.87334136
4.47261425,-1.302441559,0.456101532,26.37260788,26.40868851
4.48261625,-1.440155182,0.329764252,23.26372284,23.31058969
4.49261925,-1.835632782,0.752934265,19.72553055,19.82506023
4.50262125,-2.109563141,1.396296387,16.57877426,16.77067847
4.51262425,-2.284848633,1.955533447,13.91820694,14.23942164
4.52262625,-2.419867859,2.256108398,11.83977905,12.29333777
4.53262925,-2.483335876,2.372266846,10.1683548,10.73266259
4.54263125,-2.436782684,2.456092529,9.043144684,9.682394649
4.55263425,-2.215243378,2.683170319,8.440198517,9.129274735
4.56263625,-1.699266357,2.948119354,8.145311737,8.827514779
4.57263925,-0.929716644,3.079845428,7.933801575,8.561251563
4.58264125,-0.105231171,3.198398895,7.72603363,8.362560897
4.59264425,0.557590485,3.32533493,7.353907471,8.090037987
4.60264625,0.921783142,3.431015167,6.901398468,7.762142105
4.61264825,1.052162018,3.447780304,6.418802032,7.361742556
4.62265125,1.093176727,3.384911041,6.007008362,6.981175229
4.63265325,1.169218597,3.30078598,5.76032135,6.741184041
4.64265625,1.262923737,3.195105743,5.707780609,6.662014452
4.65265825,1.33043335,2.996019745,5.69715271,6.572954907
4.66266125,1.418749695,2.730771332,5.722001038,6.497019212
4.67266325,1.48251709,2.522404633,5.775140533,6.473996465
4.68266625,1.550026703,2.368824005,5.978268127,6.614650388
4.69266825,1.703457642,2.189496918,6.392456818,6.96844092
4.70267125,1.836081848,1.891616364,6.723119202,7.221477745
4.71267325,1.859433289,1.570534058,7.026238861,7.435865916
4.72267625,1.794618073,1.246008911,7.426955566,7.74163169
4.73267825,1.682800598,0.893042908,7.881111145,8.108098197
4.74268125,1.649719391,0.516426086,8.342152405,8.519376545
4.75268325,1.627266083,0.260308685,8.757688293,8.911389328
4.76268625,1.582060089,0.140557709,9.187743988,9.324017921
4.77268825,1.41231308,0.138911133,9.837243347,9.939078489
4.78269125,1.130748596,0.23875351,10.68837341,10.75067076
4.79269325,0.747994537,0.354762268,11.50761978,11.53735954
4.80269625,0.20477417,0.501756592,12.27522354,12.28718052
4.81269825,-0.306263123,0.689466248,13.01603302,13.03787852
4.82270125,-0.756676483,0.901275787,13.68738693,13.7378826
4.83270325,-1.052162018,1.035247192,14.16998337,14.24665611
4.84270625,-1.116378479,1.078507233,14.33419189,14.41799348
4.85270825,-1.00156723,1.064586182,14.08211609,14.15777081
4.86271125,-0.859362946,1.037941589,13.3984877,13.46607961
4.87271325,-0.708776093,1.067729645,12.37566467,12.44184417
4.88271625,-0.596509552,1.155447235,11.15465378,11.23019069
4.89271825,-0.501157837,1.250200195,9.893226929,9.984492915
4.90272125,-0.390537872,1.334624634,8.732241211,8.842272293
4.91272325,-0.278870087,1.390308838,7.741152191,7.869953268
4.92272625,-0.123792572,1.3947995,6.945856018,7.085598498
4.93272825,0.084424438,1.439406738,6.337970123,6.499914194
4.94273025,0.298479309,1.499132538,5.911057892,6.105497004
4.95273325,0.537382507,1.617985382,5.694608002,5.944343273
4.96273525,0.814306641,1.752854919,5.571114807,5.896856439
4.97273825,1.105151825,1.861678619,5.559439087,5.966118571
4.98274025,1.392105103,2.019151154,5.653443604,6.162495645
4.99274325,1.654808807,2.169139252,5.87737793,6.479747573
5.00274525,1.825004883,2.27227478,6.21432724,6.863799134
5.01274825,1.983974304,2.328857117,6.594686279,7.26977418
5.02275025,2.109862518,2.381846924,7.026238861,7.713154163
5.03275325,2.197280731,2.483635254,7.65942215,8.346450404
5.04275525,2.223326569,2.619702301,8.419391785,9.093524025
5.052757792,2.170037384,2.652484131,9.186995544,9.805387368
5.062759792,1.941762085,2.589465179,9.807754669,10.3280115
5.072762792,1.503024445,2.44666214,10.24200165,10.63690913
5.082764792,1.02027832,2.231559448,10.54646851,10.82814958
5.092767792,0.5733078,1.986668701,10.66577042,10.86435423
5.102769792,0.191002808,1.746118927,10.55649765,10.70163801
5.112772792,-0.130079498,1.592837677,10.0767453,10.20268829
5.122774792,-0.428109741,1.490749969,9.288634186,9.417236243
5.132777792,-0.624501343,1.403331757,8.432265015,8.571022997
5.142779792,-0.806822205,1.322350159,7.61376709,7.769750402
5.152782792,-0.963695984,1.325044556,7.046446838,7.234422304
5.162784792,-0.978515167,1.386416931,6.920259247,7.125281179
5.172787792,-0.820593567,1.466051331,7.242688751,7.434999708
5.182789792,-0.526006165,1.474134521,7.916437683,8.069680332
5.192792792,-0.080382843,1.313668213,8.797804871,8.895704363
5.202794792,0.355959778,0.986598358,9.916728058,9.972039864
5.212797792,0.76640625,0.620908813,11.34266281,11.38546907
5.222799792,1.196312256,0.322130127,12.93041107,12.98962899
5.232802792,1.620829468,0.087118835,14.74269241,14.83177863
5.242804792,1.927691345,-0.03397934,16.676521,16.78759962
5.252807792,2.033371582,0.069305878,18.23672653,18.34986643
5.262809792,1.874252472,0.457598419,19.29786987,19.39407127
5.272811792,1.626667328,0.973874817,20.01263351,20.10223816
5.282814792,1.507664795,1.32923584,20.4349054,20.53351601
5.292816792,1.61124939,1.367406464,20.5808519,20.6890645
5.302819792,1.938019867,1.128203888,20.58728851,20.70906114
5.312821792,2.420616302,0.742456055,20.59641953,20.75146071
5.322824792,2.951412506,0.459244995,20.87244553,21.08508297
5.332826792,3.364104309,0.37092865,21.09009293,21.35993459
5.342829792,3.505260773,0.533939667,20.7347319,21.03570897
5.352831792,3.518583069,0.858315125,19.8018718,20.13035664
5.362834792,3.551813965,1.203347626,18.50332214,18.87952219
5.372836792,3.725452881,1.331630859,16.86557785,17.32339332
5.382839792,3.706442413,1.22160965,14.77652206,15.28318193
5.392841792,3.356619873,1.215023346,12.51322861,13.01245822
5.402844792,2.833158417,1.545536041,10.25247986,10.74843298
5.412846792,2.187550964,1.980531464,8.207582245,8.721943041
5.422849792,1.804048462,2.825224915,6.598578186,7.401197251
5.432851792,1.737736359,3.736529846,5.554798737,6.916442145
5.442854792,1.757345581,4.128414917,4.992418213,6.712399931
5.452856792,1.526375885,3.900139618,4.675527191,6.277058778
5.462859792,1.013542328,3.297492828,4.339176636,5.543390739
5.472861792,0.455951843,2.719394989,3.963308258,4.828127332
5.482864792,0.024099884,2.43139389,3.532055054,4.288084649
5.492866792,-0.151634674,2.348765717,3.065475311,3.864819834
5.502869792,-0.205073547,2.472857666,2.623743896,3.611248016
5.512871792,-0.264350281,2.620600433,2.191442871,3.426346386
5.522874792,-0.167801056,2.875071259,1.850302277,3.423128752
5.532876792,-0.112116852,2.580334167,1.280287628,2.882677751
5.542879792,-0.113613739,2.428400116,0.929866333,2.602822814
5.552881792,0.003293152,2.477348328,0.658929749,2.563484737
5.562884792,0.191601563,2.576891327,0.39787262,2.614456481
5.572886792,0.360300751,2.512824554,0.27617569,2.553502865
5.582889792,0.3556604,2.305655365,0.224832458,2.343734332
5.592891792,0.177530823,2.077679443,0.241597595,2.099199481
5.602893792,-0.06436615,1.811532898,0.36509079,1.849076993
5.612896792,-0.343236237,1.616488495,0.571212158,1.748464898
5.622898792,-0.561781769,1.425485687,0.781075745,1.719792871
5.632901792,-0.70668045,1.248852997,1.072519684,1.79146017
5.642903792,-0.806373138,1.084794159,1.413360901,1.955659746
5.652906792,-0.863703918,0.964444427,1.827549591,2.239659577
5.662908792,-0.980311432,0.956959991,2.507286072,2.857143044
5.672911792,-1.144070892,0.937051392,3.557801514,3.852909956
5.682913792,-1.314865723,0.835712128,5.014422455,5.250877944
5.692916792,-1.050216064,0.522263947,6.576274567,6.680052439
5.702918792,-0.411045227,-0.185614014,8.688981171,8.700678395
5.712921792,0.632734222,-1.312919769,11.22904907,11.32323514
5.722923792,2.298320618,-2.792293396,13.66643051,14.13684912
5.732926792,3.61094101,-4.283043365,15.06167908,16.06977075
5.742928792,3.57815918,-5.114564209,14.94282623,16.19413616
5.752931792,2.36942276,-4.511618042,14.24407928,15.1282073
5.762933792,0.415086823,-2.321372681,14.4747496,14.66558708
5.772936792,-1.846709747,0.194146271,16.15440674,16.26077756
5.782938792,-4.167184296,1.739682312,18.50287308,19.04595053
5.792941792,-5.794749756,1.940414886,20.97692825,21.84893255
5.802943792,-5.57425827,1.222058716,23.20489517,23.89629559
5.812946792,-4.11164978,0.354313202,24.60957413,24.95320301
5.822948792,-2.638263702,-0.007783813,24.4586879,24.60056726
5.832951792,-1.599124603,0.464184723,22.78771271,22.8484686
5.842953792,-0.708027649,1.546733551,20.51229446,20.58270905
5.852956792,0.021255798,2.674039307,18.03524551,18.2324167
5.862958792,0.614172821,3.425027618,15.77210175,16.15138433
5.872961792,1.094224548,3.907773743,13.93362488,14.51254372
5.882963792,1.46844635,4.283193054,12.54900421,13.34089892
5.892966792,1.840722198,4.545298004,11.37140305,12.38373124
5.902968792,2.124382324,4.719984741,10.29020142,11.51865884
5.912971792,2.274819489,4.863386536,9.273066559,10.71527394
5.922973792,2.153272247,4.90035965,8.209079132,9.799953381
5.932976792,1.718725891,4.794080658,7.13401474,8.765351924
5.942978792,1.099164276,4.668342133,6.272256775,7.895744767
5.952981792,0.546363831,4.525239716,5.770500183,7.353569221
5.962983792,0.239052887,4.324956207,5.586383057,7.068950992
5.972985792,0.116158447,4.072131958,5.548062744,6.883077196
5.982988792,0.079784088,3.843856659,5.60359726,6.795726728
5.992990792,0.049546967,3.644620972,5.689967651,6.757325566
6.002993792,0.013471985,3.389102325,5.783523102,6.703382395
6.012995792,0.021854553,3.075354767,5.951174469,6.698862749
6.022998792,0.061821442,2.756368103,6.178701324,6.765924702
6.033000792,0.067958679,2.399959259,6.378984833,6.815854336
6.043003792,0.165256348,2.01376236,6.702761536,7.000682874
6.053005542,0.270786896,1.715432739,7.210206299,7.416408153
6.063008542,0.280516663,1.476529541,7.716154175,7.861161767
6.073010542,0.131576385,1.217118988,8.076454926,8.168709515
6.083013542,-0.112116852,0.989592133,8.418643341,8.477347373
6.093015542,-0.258811798,0.722547455,8.78972168,8.823166414
6.103018542,-0.246387634,0.540675659,9.181007996,9.200214392
6.113020542,-0.059426422,0.52885025,9.616452484,9.631166724
6.123023542,0.237106934,0.629441071,10.20712418,10.22926193
6.133025542,0.365390167,0.667162628,10.94583801,10.97223704
6.143028542,0.47975235,0.807121582,11.82166672,11.85889588
6.153030542,0.512234802,1.163380737,12.82592834,12.88876554
6.163033542,0.539777527,1.606908417,14.06654846,14.1683203
6.173035542,0.475561066,1.961520996,14.93983246,15.07555362
6.183038542,0.324525146,2.167941742,15.21885223,15.37591465
6.193040542,0.346529388,2.14009964,14.9485144,15.10490622
6.203043542,0.447868652,1.899400177,14.20351364,14.33694902
6.213045542,0.596060486,1.555415497,13.10090652,13.20637563
6.223048542,0.719403992,1.272503815,11.91701843,12.00633734
6.233050542,0.827778625,1.207239532,10.67026108,10.77019574
6.243053542,1.127605133,1.30812973,9.68710556,9.839853193
6.253055542,1.602417755,1.109941864,8.6726651,8.88902883
6.263058542,1.548380127,1.117126923,7.436835022,7.678018541
6.273060542,1.258582764,1.51170639,5.893843689,6.213427413
6.283063542,1.035696259,1.965412903,4.454736328,4.977970507
6.293065542,1.077010345,2.298769684,3.387006683,4.232742328
6.303068542,1.326242065,2.465223541,2.687960358,3.880898866
6.313070542,1.580114136,2.477498016,2.491269379,3.852425239
6.323073542,1.941911774,2.304906921,2.739004211,4.07256201
6.333075542,2.292033691,1.968706055,3.257376251,4.442940694
6.343077542,2.321821747,1.462159424,4.399201813,5.18476065
6.353080542,1.333726501,1.131047974,9.68950058,9.846040696
6.363082542,1.664688263,1.235381012,4.402045898,4.865733382
6.373085542,2.863844604,1.012943573,5.537883911,6.316313705
6.383087542,3.482807465,0.603095856,4.8359935,5.990033854
6.393090542,4.299509125,0.291443939,4.379442902,6.144122265
6.403092542,4.343517609,0.085023193,5.593867493,7.08270624
6.413095542,3.647914124,0.280217285,7.400460663,8.255459842
6.423097542,2.665207672,0.693507843,9.181307373,9.585441573
6.433100542,2.279609528,0.986598358,10.12479538,10.42504088
6.443102542,2.196681976,1.042731628,10.59945831,10.87479735
6.453105542,2.355651398,0.870739288,10.41923309,10.71763494
6.463107542,2.564916229,0.417781219,9.699230347,10.04133486
6.473110542,2.566562805,0.154628448,8.952732697,9.314643167
6.483112542,2.46297821,0.226628723,8.296197968,8.657050477
6.493115542,2.237846375,0.489332428,7.800129547,8.129540182
6.503117542,2.141746216,0.907562714,7.465874634,7.819848527
6.513120542,2.016157379,1.20873642,7.563771057,7.920641825
6.523122542,1.743274841,1.397493896,8.055348816,8.359464152
6.533125542,1.822310486,1.52817215,8.220156097,8.557282974
6.543127542,2.064207458,1.535656586,8.624914398,9.00046343
6.553130542,2.251168671,1.472338257,9.214089203,9.598696795
6.563132542,2.652933197,1.371597748,9.673483887,10.12401232
6.573135542,3.01293457,1.358125763,10.15158966,10.6760036
6.583137542,3.25288559,1.481918335,10.62176193,11.20710369
6.593140542,3.422782288,1.656754761,11.37110367,11.99009064
6.603142542,3.632945251,1.72231842,12.45185623,13.08485367
6.613145542,3.991599426,1.728006592,13.65086288,14.32706984
6.623147542,4.314477997,1.692530365,14.79568222,15.5045668
6.633150542,4.663851471,1.712588654,15.96430206,16.71955175
6.643152542,5.172793121,1.851200409,17.28440689,18.13657777
6.653155542,5.682632904,1.481469269,18.20963287,19.13315963
6.663157542,6.223607941,0.557141418,18.67606293,19.69362914
6.673160542,6.767127686,-0.550854492,18.69088211,19.88583747
6.683162542,7.301666107,-1.270258484,18.55391693,19.97938232
6.693165542,7.957602081,-1.517993317,18.68773865,20.3680954
6.703167542,8.656798096,-1.915865936,18.95418457,20.92538669
6.713170542,9.297914886,-2.437531128,19.26089676,21.52614511
6.723172542,9.461075592,-2.59530304,19.37855209,21.72040125
6.733174542,8.963360596,-2.071542206,18.97873352,21.09088538
6.743177542,7.817044373,-1.159638519,18.07311676,19.7253262
6.753180542,6.292913818,-0.293389893,16.98203568,18.11287878
6.763182542,4.524940338,0.265847168,16.09228592,16.71847558
6.773184542,2.935844879,0.339643707,15.56493256,15.84303217
6.783187542,1.819017334,0.284707947,15.31854492,15.42879455
6.793189542,1.196611633,0.251027985,15.03563324,15.08526305
6.803192542,0.884959717,0.081580353,14.8595993,14.8861513
6.813194542,0.668809204,-0.242046661,14.22716446,14.24493246
6.823197542,0.435594177,-0.513582001,12.90122177,12.91878601
6.833199542,0.215851135,-0.42361908,11.0986702,11.10884895
6.843202542,0.13921051,-0.019309845,9.130712585,9.13179417
6.853204542,0.481698303,0.375718689,7.071295166,7.097634332
6.863207542,1.058299255,0.511935425,4.926555176,5.064881153
6.873209542,0.97237793,0.461490326,3.202590179,3.378620431
6.883212542,-0.00703537,0.437839508,1.649569702,1.706702415
6.893214542,-0.641416168,0.173040161,-0.299078064,0.728563852
6.903217542,-1.093625793,-0.162861328,-1.954934692,2.245954327
6.913219542,-1.451082458,-0.350121918,-2.999163208,3.350105313
6.923222542,-1.67561554,-0.347277832,-3.392395477,3.799557396
6.933224542,-1.767075348,-0.364641724,-3.208278351,3.680838063
6.943227542,-1.728156281,-0.495170288,-2.601739655,3.162398927
6.953229542,-1.470991058,-0.645158386,-1.786983948,2.40278082
6.963232542,-1.08464447,-0.740510101,-1.074615326,1.696940463
6.973234542,-0.836759949,-0.679736481,-0.542022858,1.206647286
6.983237542,-0.931961975,-0.305215302,-0.277971954,1.019302659
6.993239542,-0.026794281,0.298628998,-1.837279358,1.861583372
7.003242542,0.406554565,0.440084839,-2.172582092,2.253680152
7.013244542,0.198038177,0.693657532,-1.637295227,1.789166161
7.023247542,0.256716156,1.207389221,-1.34794693,1.827745289
7.033249542,0.488434296,1.478325806,-0.886755981,1.791745356
7.043252542,0.73018158,1.472038879,-0.190404053,1.654181763
7.05325525,0.799637146,1.378932495,0.51133667,1.674018991
7.06325825,0.524509277,1.28822113,1.234632568,1.859822906
7.07326025,0.232466583,1.207838287,1.943109283,2.299692964
7.08326325,0.326321411,1.059047699,2.780467987,2.993170546
7.09326525,0.710871735,0.627944183,3.960015106,4.072023104
7.10326825,1.133143616,0.031284943,5.287005615,5.407163913
7.11327025,1.783541107,-0.530347137,6.66369278,6.918604514
7.12327325,2.800675964,-1.212927704,8.375083923,8.913866176
7.13327525,3.69985611,-2.091151428,10.4244722,11.25750728
7.14327725,4.000131683,-2.770289154,12.74614426,13.64330418
7.15328025,3.876788177,-2.648891602,15.71731567,16.40366195
7.16328225,4.061504059,-2.1950354,19.45908463,19.99924924
7.17328525,4.844525757,-2.169438629,23.91142593,24.4935131
7.18328725,5.927972717,-2.750979309,28.69323212,29.42805323
7.19329025,6.480174408,-3.414399719,32.69411224,33.50456329
7.20329225,6.272556152,-3.062182159,34.16315735,34.86894378
7.21329525,5.776936798,-1.955084381,32.80742661,33.36948597
7.22329725,5.277874603,-0.824485474,29.32162537,29.80425223
7.23330025,4.622088318,0.228724365,25.29125656,25.71115854
7.24330225,3.988156586,1.017733612,21.86443268,22.2484739
7.25330525,3.556604004,1.604363708,19.34202805,19.73163612
7.26330725,3.36754715,2.048490143,17.41418701,17.85470792
7.27331025,3.346141663,2.430795135,15.65549423,16.1925887
7.28331225,3.438948669,2.883304138,13.92868515,14.63379926
7.29331525,3.751947784,3.4319133,12.24558517,13.25931738
7.30331725,4.162693634,3.954626312,10.54736664,12.00891463
7.31332025,4.382286987,4.361031189,8.899293823,10.8360723
7.32332225,4.189637604,4.63241684,7.413782959,9.694149101
7.33332525,3.785777435,4.781207428,6.208639069,8.702830249
7.34332725,3.279679871,4.753515015,5.323379974,7.85433507
7.35333025,2.733914795,4.535568237,4.840484161,7.174674645
7.36333225,2.22901474,4.202361145,4.799170074,6.757246429
7.37333525,1.819316711,3.771407318,5.064568176,6.571398426
7.38333725,1.514999542,3.264411621,5.343438263,6.442355106
7.39334025,1.187480621,2.797532501,5.56378006,6.339711892
7.40334225,0.977766724,2.386487274,5.591023407,6.157182149
7.41334525,0.837358704,2.001038818,5.434149628,5.851094609
7.42334725,0.808917847,1.733694763,5.217100983,5.55681458
7.43335025,0.92792038,1.470691681,4.794080658,5.099723483
7.44335225,1.102158051,1.17595459,4.231999512,4.528514263
7.45335525,1.239272919,0.913400574,3.589535522,3.905747463
7.46335725,1.383722534,0.624201965,2.972219238,3.337424658
7.47335925,1.606908417,0.272283783,2.420316925,2.917914861
7.48336225,1.870061188,-0.166902924,2.188000031,2.883111091
7.49336425,2.218686218,-0.457149353,2.471959534,3.352929764
7.50336725,2.81639328,-0.769699402,3.106340332,4.263080874
7.51337025,3.512745209,-1.178199921,4.03216507,5.475937281
7.52337225,4.047882385,-1.420396271,5.240602112,6.772502334
7.53337425,4.384083252,-1.607806549,6.523434448,8.022494927
7.54337725,4.441863098,-1.720671844,7.868387604,9.197955363
7.55337925,4.238286438,-1.579964447,9.273815002,10.31809112
7.56338225,3.89519989,-1.185834045,10.93296478,11.66655491
7.57338425,3.459006958,-0.768352203,12.93220734,13.40884338
7.58338725,3.121309204,-0.608334961,14.93713806,15.27189366
7.59338925,2.81759079,-0.80382843,16.44375504,16.70275539
7.60339225,2.540966034,-0.970132599,17.32242783,17.5346563
7.61339425,2.281106415,-0.971330109,17.46582962,17.64092211
7.62339725,1.996997223,-0.878223724,16.8396817,16.98040502
7.63339925,1.764680328,-0.540975037,15.64292038,15.75143513
7.64340225,1.626218262,0.040715332,14.15725983,14.25041225
7.65340425,1.367556152,0.486039276,12.51008514,12.59399358
7.66340725,1.709744568,1.219364319,10.90467361,11.10504311
7.67340925,2.246827698,1.556912384,9.879754944,10.25093989
7.68341225,2.332150269,1.620230713,9.078321533,9.512097261
7.69341425,2.291135559,1.815574493,8.225095825,8.729135938
7.70341725,2.320175171,1.9681073,7.592211914,8.179140598
7.71341925,2.383792877,1.987866211,7.051236877,7.704156155
7.72342225,2.43962677,1.987417145,6.615792389,7.326002636
7.73342425,2.554737396,1.98217804,6.234684906,7.023318932
7.74342725,2.775977325,1.94580368,5.985902252,6.879188022
7.75342925,2.846480713,1.766177216,5.87034256,6.758901995
7.76343225,2.751727753,1.530716858,5.742508392,6.549160432
7.77343425,2.54021759,1.348695374,5.514682159,6.219598374
7.78343725,2.383643188,1.279688873,5.426365814,6.063398751
7.79343925,2.402953033,1.217568054,5.587730255,6.203175368
7.80344225,2.524649963,1.004860382,5.746400299,6.356470579
7.81344425,2.672392731,0.883911896,5.963299255,6.594233932
7.82344625,2.865790558,0.789009247,6.363866272,7.02382268
7.83344925,3.191513214,0.65878006,6.898255005,7.629264045
7.84345125,3.547023926,0.428409119,7.467670898,8.278346559
7.85345425,3.940256195,0.260458374,8.066126404,8.980860349
7.86345625,4.174519043,0.121397552,8.638835449,9.59535432
7.87345925,4.260140991,0.03742218,9.369017029,10.29216604
7.88346125,4.314178619,0.130229187,10.27343628,11.14327554
7.89346425,4.252506866,0.272732849,11.37589371,12.14780455
7.90346625,4.08710083,0.415535889,12.59241394,13.24560124
7.91346925,3.892505493,0.622854767,13.65131195,14.20907685
7.92347125,3.69042572,0.760119324,14.27102325,14.76005177
7.93347425,3.447780304,0.81909668,14.29527283,14.72796434
7.94347625,3.213966522,0.925974426,13.70759491,14.10975434
7.95347925,2.914289703,0.977916412,12.77593231,13.14054228
7.96348125,2.599344635,1.047371979,11.76628189,12.09541112
7.97348425,2.375559998,1.157692566,10.89299789,11.20896697
7.98348625,2.258653107,1.149759064,9.938881989,10.25694082
7.99348925,2.262395325,1.134490814,8.959468689,9.310079549
8.00349125,2.31792984,1.149759064,8.023914185,8.4307736
8.01349425,2.331850891,1.323996735,7.428452454,7.897620008
8.02349625,2.251917114,1.574425964,7.074887695,7.58972883
8.03349925,2.175426178,1.701661377,6.830146637,7.367430596
8.04350125,2.233954468,1.761836243,6.642736359,7.226379857
8.053504375,2.356250153,1.708846436,6.568041687,7.1840965
8.063506375,2.354753265,1.697320404,6.847211151,7.437073352
8.073509375,2.362686768,1.743574219,7.321574707,7.888459673
8.083511375,2.420616302,1.722767487,7.548353119,8.112024772
8.093514375,2.377056885,1.741179199,7.460934906,8.021698954
8.103516375,2.311642914,1.790127411,7.234006805,7.802506236
8.113518375,2.189496918,1.68369873,6.897356873,7.429823012
8.123521375,1.944606171,1.468895416,6.540049896,6.979355239
8.133523375,1.630858612,1.377734985,6.293213196,6.645478601
8.143526375,1.354533234,1.191522217,6.170318756,6.428632749
8.153528375,1.151854706,0.796942749,6.239624634,6.394904423
8.163531375,1.258582764,0.470172272,6.692582703,6.826108391
8.173533375,1.390308838,-0.100141754,7.176825714,7.310937995
8.183536375,1.453776855,-0.840801544,7.717052307,7.897677551
8.193538375,1.523681488,-1.465452576,8.461154938,8.72125561
8.203541375,1.871558075,-2.084864502,9.521250458,9.924897979
8.213543375,2.560425568,-2.503244476,11.12262039,11.68480622
8.223546375,3.547922058,-2.637814636,13.22365128,13.94312627
8.233548375,4.736151123,-2.486778717,15.59786407,16.48965007
8.243551375,6.007307739,-2.315983887,17.64904861,18.78670926
8.253553375,7.251969452,-2.277962952,19.03351959,20.49524443
8.263556375,8.365354156,-2.197131042,19.87731491,21.67750408
8.273558375,9.42155777,-2.126328278,20.34943314,22.52524033
8.283561375,10.43465103,-2.004182281,20.71407486,23.2802832
8.293563375,11.23099503,-1.767524414,21.00042938,23.88048212
8.303566375,11.94905182,-1.229543152,21.681064,24.78628959
8.313568375,12.54541168,-0.605341187,22.67125488,25.91793954
8.323571375,12.91619064,-0.367635498,22.78471893,26.19363574
8.333573375,12.65019379,-0.465980988,21.77491882,25.18713225
8.343576375,11.26766876,-0.630937958,20.72530151,23.598656
8.353578375,8.844507751,-0.721349945,19.72283615,21.62720345
8.363581375,6.481671295,-0.767005005,18.43715973,19.55835418
8.373583375,4.629572754,-0.528101807,16.80166077,17.43581486
8.383586375,3.556454315,0.062420197,14.9127388,15.33108092
8.393588375,2.920876007,0.766256561,12.85990768,13.2096893
8.403590375,2.329904938,1.336570587,10.61831909,10.95278861
8.413593375,1.976040802,1.874701538,8.444838867,8.873248932
8.423595375,1.937271423,2.317031708,6.518195343,7.183907504
8.433598375,1.786085815,2.616109772,4.911586304,5.844468573
8.443600375,1.559606781,2.79184433,3.415297852,4.67878483
8.453603375,1.242117004,2.895279236,2.304457855,3.903334794
8.463605375,0.804576874,2.962938538,1.324745178,3.343844869
8.473608375,0.420774994,3.046614532,0.263751526,3.086823055
8.483610375,0.055833893,3.079096985,-0.65174469,3.14781302
8.493613375,-0.251027985,2.98718811,-1.363514557,3.293247607
8.503615375,-0.511935425,2.76490036,-2.163002014,3.547580809
8.513618375,-0.72314621,2.594853973,-2.860551453,3.929244482
8.523620375,-0.699046326,2.249522095,-2.896776123,3.733674775
8.533623375,-0.672701111,1.678759003,-2.572849731,3.144887011
8.543625375,-0.622705078,1.291963348,-1.898502045,2.379336235
8.553628375,-0.396974487,1.212029572,-1.238973541,1.778105695
8.563630375,0.139809265,1.632954254,-0.988394623,1.913899202
8.573633375,0.805924072,1.790726166,-1.456620941,2.444986376
8.583635375,1.108145599,1.481469269,-2.015858002,2.736132553
8.593638375,1.177301788,1.192120972,-2.107168121,2.692090155
8.603640375,1.050365753,1.066083069,-2.088307343,2.569207832
8.613643375,0.802481232,0.976718903,-1.932182007,2.308957178
8.623645375,0.517324219,0.741707611,-1.279090118,1.566469297
8.633648375,0.332608337,0.333356781,-0.24219635,0.529541426
8.643650375,0.099393311,-0.075143738,0.883163452,0.891909914
8.653653375,-0.280067596,-0.470471649,1.879341888,1.957474742
8.663655375,-0.34054184,-0.901126099,2.798580322,2.959737963
8.673657375,0.238304443,-1.444496155,4.125121765,4.377212324
8.683660375,1.355730743,-2.22781723,5.475463715,6.064806539
8.693662375,2.928360443,-3.068469086,6.55486908,7.80750319
8.703665375,4.727020111,-3.852089539,7.827522583,9.922369814
8.713667375,6.013295288,-4.731361084,9.056916046,11.85635805
8.723670375,6.97489563,-5.616320801,9.928403778,13.37031899
8.733672375,7.755073242,-6.04353241,11.10450806,14.83157255
8.743675375,8.762478333,-5.644013214,13.39549393,16.9727773
8.753677375,10.46054718,-4.755760345,17.53214172,20.96225888
8.763680375,12.04305634,-3.859124908,22.53997787,25.845283
8.773682375,12.77054352,-3.359613647,26.67273376,29.76253538
8.783685375,12.87906784,-2.852917328,28.6376976,31.52978353
8.793687375,13.07665695,-2.333497467,28.38622055,31.34041615
8.803690375,13.48066681,-1.694476318,26.8302063,30.07423478
8.813692375,13.45536942,-0.446222076,24.69714203,28.12818701
8.823695375,12.55095016,0.984802094,21.94900681,25.30326234
8.833697375,11.0866951,2.065404968,18.60436203,21.75552786
8.843700375,9.624385986,2.840792542,15.43590088,18.41102778
8.853702375,8.415948944,3.410058746,12.87667282,15.75643996
8.863705375,7.5260495,3.803141327,10.72160431,13.64031173
8.873707375,7.110363922,4.257745972,8.737180939,12.04259136
8.883710375,6.897057495,4.918921051,6.889872437,10.91950221
8.893712375,6.866970062,6.526428223,5.207071838,10.81032563
8.903715375,7.39611969,8.46325058,3.974235535,11.92156638
8.913717375,7.592211914,7.783514099,2.686313782,11.20004711
8.923720375,6.724167023,6.637048187,2.106868744,9.680068527
8.933722375,5.35077301,6.357579346,2.393522644,8.647458447
8.943724375,4.12452301,5.546416168,3.28446991,7.652592042
8.953727375,3.090772705,4.27316391,4.520299988,6.945928138
8.963729375,2.454445953,3.457210693,5.634433136,7.05148548
8.973732375,2.022593994,2.922522583,5.964796143,6.943401021
8.983734375,1.64283371,2.350861359,5.834716644,6.501489833
8.993737375,1.665287018,1.953437805,5.387446747,5.967720047
9.003739375,2.11435318,1.860032043,5.09690094,5.823109802
9.013742375,2.970572662,2.113754425,5.176984406,6.331937085
9.023744375,3.521726532,2.213447113,5.334906006,6.764845008
9.033747375,3.747906189,2.474504242,5.857169952,7.380813769
9.043749375,4.471052399,2.653981018,7.109316101,8.807740926
9.053752167,6.329138489,3.405418396,8.549321594,11.16896451
9.063754167,7.397017822,4.121229858,9.819580078,12.96628556
9.073757167,9.649833069,4.79857132,11.11783035,15.483918
9.083759167,9.991422729,4.84886673,11.35134476,15.88058766
9.093762167,9.883197784,4.747677155,13.05674835,17.04983033
9.103764167,11.34460876,5.097350006,14.13974625,18.83123865
9.113767167,11.31062943,5.329816589,14.45259567,19.11059404
9.123769167,10.77204941,5.391638031,14.71290436,19.01516142
9.133771167,10.40291702,5.855373688,14.33553909,18.65512703
9.143774167,9.941277008,6.378984833,13.3294812,17.8099833
9.153776167,9.896819458,6.812483368,12.04590042,17.01354407
9.163779167,10.16027161,7.468718719,11.53456375,17.08973491
9.173781167,10.60185333,8.287216644,11.83169586,17.91832249
9.183784167,11.77271851,9.236991577,12.88281006,19.74552378
9.193786167,12.59585678,10.25083328,13.82480118,21.32745457
9.203789167,12.74045609,10.88865692,13.95083908,21.80614551
9.213791167,13.01288956,11.12172226,12.85691391,21.40860191
9.223794167,13.02845718,11.18818405,11.28413452,20.54867029
9.233796167,13.06692719,11.58725418,10.43330383,20.34361999
9.243799167,12.76784912,11.93423264,10.21445892,20.24300005
9.253801167,12.24738144,11.74412796,10.14829651,19.77146468
9.263804167,12.16325638,11.50672165,10.29648834,19.65622347
9.273806167,11.44490021,11.13893646,10.79689774,19.27782786
9.283809167,10.95466965,10.54317535,11.07157654,18.80806052
9.293811167,10.87952591,9.966724091,10.58853104,18.16085523
9.303814167,10.63104263,9.199120331,10.01267853,17.25968174
9.313816167,10.13168106,8.140222321,10.19514908,16.51833058
9.323819167,9.849068756,7.139702911,10.45905029,16.04279421
9.333821167,9.622290344,6.223458252,10.00235001,15.21074981
9.343823167,9.316326599,5.509742432,9.23549469,14.2283367
9.353826167,9.052126007,4.752467194,8.296497345,13.16657882
9.363828167,8.769663391,3.998934174,7.398664398,12.15066687
9.373831167,8.160729675,3.11711792,6.576873322,10.93477003
9.383833167,7.494614868,2.186203766,5.908363495,9.790684252
9.393836167,7.013066254,1.692530365,5.445076904,9.038618247
9.403838167,6.553521881,1.746717682,5.216502228,8.556375822
9.413841167,5.916147308,1.951042786,5.725443878,8.460973616
9.423843167,4.969066772,2.114802246,6.22600296,8.241791431
9.433846167,3.71617218,2.395917664,6.337970123,7.727886024
9.443848167,2.533780975,3.141068115,6.311774597,7.491652254
9.453851167,1.106499023,3.863465881,6.262377319,7.440972947
9.463853167,-0.589025116,4.507277069,6.020330658,7.543664785
9.473856167,-2.718945923,5.208868103,4.829407196,7.605796981
9.483858167,-4.760849762,5.766458588,3.113076324,8.099936994
9.493861167,-6.315367126,5.956712952,1.40991806,8.795121379
9.503863167,-7.371870117,5.737418976,-0.454604645,9.35249223
9.513866167,-7.684420166,5.273683319,-2.471061401,9.642001529
9.523868167,-8.513845367,4.465513916,-4.506528625,10.61768231
9.533871167,-10.93700638,3.31021637,-7.163353729,13.48663329
9.543873167,-13.7887262,2.311792603,-9.379195862,16.83575571
9.553876167,-15.95996109,1.910477142,-9.857301636,18.85568022
9.563878167,-17.20312592,1.677262115,-8.851393433,19.4192666
9.573880167,-16.81767746,1.269809418,-7.218588867,18.34542767
9.583883167,-14.82352432,0.613723755,-5.893694,15.96399571
9.593885167,-12.67893402,-0.088615723,-4.120930481,13.33211494
9.603888167,-10.88266937,-0.532293091,-1.68369873,11.02500204
9.613890167,-9.391919403,-0.751138,0.345631256,9.428245825
9.623893167,-8.049510956,-0.777333527,1.88622757,8.304018815
9.633895167,-6.725364532,-0.192350006,3.06442749,7.393121294
9.643898167,-5.398972778,0.966989136,3.496279449,6.504455783
9.653900167,-3.406615906,1.936822357,2.331401825,4.559796842
9.663903167,-1.189127197,2.302062836,-0.066761169,2.591905447
9.673905167,0.476758575,2.092648315,-2.487676849,3.28557633
9.683908167,0.864602051,1.430724792,-3.982767792,4.3193691
9.693910167,0.120948486,0.686921539,-4.371210022,4.426507291
9.703913167,-1.137035522,-0.144748993,-4.100572815,4.257757562
9.713915167,-2.436333618,-0.750838623,-3.542832642,4.364761536
9.723918167,-3.267255707,-0.787662048,-2.763553162,4.35116047
9.733920167,-3.290607147,-0.595461731,-1.912722473,3.852424864
9.743923167,-2.729723511,-0.493673401,-1.178948364,3.014137209
9.753925167,-1.943258972,-0.471818848,-0.499511261,2.061159857
9.763928167,-0.98525116,-0.377664642,0.122445374,1.062235049
9.773930167,-0.011975098,-0.210462341,0.605490875,0.641137271
9.783932167,0.573607178,-0.222138062,1.112935638,1.271611673
9.793935167,0.768501892,-0.330961761,1.722168732,1.914679082
9.803937167,0.693956909,-0.441282349,2.389031982,2.526614358
9.813940167,0.324824524,-0.650397491,3.076851654,3.161573021
9.823942167,-0.065413971,-0.692160645,3.485950928,3.554605353
9.833945167,-0.188009033,-0.588875427,3.524570618,3.578368302
9.843947167,-0.057779846,-0.442030792,3.195854187,3.2267962
9.853950167,0.039368134,-0.253572693,2.754122772,2.766051555
9.863952167,0.021555176,0.030985565,2.17991684,2.180243601
9.873955167,-0.055384827,0.331859894,1.640887756,1.6750257
9.883957167,-0.286953278,0.5733078,1.129251709,1.298550515
9.893960167,-0.802331543,0.754431152,0.593366089,1.250993838
9.903962167,-1.66034729,0.888402557,0.233065338,1.897453999
9.913965167,-2.669099579,0.950373688,-0.005239105,2.83325434
9.923967167,-3.687431946,1.149160309,-0.285306702,3.872870213
9.933970167,-4.704267426,1.167572021,-0.720601501,4.900267642
9.943972167,-5.957012329,0.582438812,-1.220561829,6.108600661
9.953975167,-7.399263153,0.079634399,-2.067201233,7.683017492
9.963977167,-8.931027832,-0.460292816,-3.293151855,9.529951561
9.973980167,-11.11708191,-1.701811066,-4.658612366,12.17326334
9.983982167,-13.7369339,-2.687810669,-5.586233368,15.07095493
9.993985167,-16.13704285,-2.493365021,-6.53960083,17.58941159
10.00398717,-17.79215103,-1.586550751,-7.751031647,19.47193553
10.01398917,-18.8874234,-0.451161804,-8.587492218,20.75291142
10.02399217,-19.78480728,0.924028473,-8.801098022,21.67375727
10.03399417,-20.10080017,2.268233185,-8.914711761,22.10563582
10.04399717,-19.51970856,3.241509247,-8.973240051,21.72660676
10.05399917,-18.26022766,4.117038574,-8.994046783,20.76725303
10.0640015,-17.06720856,5.110073547,-8.884624329,19.90826484
10.0740035,-16.2358374,6.058501282,-8.774603119,19.42425066
10.0840065,-15.43590088,6.873406677,-8.80843277,19.05516316
10.0940085,-14.24467804,7.540569305,-9.143585815,18.53041282
10.1040115,-12.63327896,8.149802399,-9.839788055,17.96776128
10.1140135,-11.17501144,8.841364288,-10.64526306,17.78685551
10.1240165,-9.94217514,9.375303955,-11.30269592,17.73398167
10.1340185,-8.864416351,9.570797424,-11.44280457,17.35268904
10.1440215,-8.04666687,9.518855438,-10.93640762,16.58199229
10.1540235,-7.466473389,9.253906403,-9.768087158,15.38825966
10.1640265,-7.10243042,8.698860626,-8.341254272,13.98896769
10.1740285,-6.88358551,7.986641693,-7.011569366,12.66223914
10.1840315,-6.807244263,7.374265137,-5.79894104,11.59077555
10.1940335,-6.544540558,6.881040802,-4.700974274,10.5961735
10.2040355,-6.100713501,6.278244324,-3.898043976,9.582786852
10.2140385,-5.613177338,5.587430878,-3.575614471,8.689773443
10.2240405,-5.101840668,4.940775604,-3.540437622,7.935662564
10.2340435,-4.637506256,4.429438934,-3.296744385,7.210750106
10.2440455,-4.206103363,4.046984253,-2.849923553,6.495494693
10.2540485,-3.922592926,3.589685211,-2.38469101,5.827463118
10.2640505,-3.86361557,3.027903442,-1.939217377,5.277905699
10.2740535,-4.022285614,2.476899261,-1.551373901,4.97197873
10.2840555,-4.326153717,1.985171814,-1.253044281,4.922055778
10.2940585,-4.709656219,1.530118103,-1.125509491,5.078276748
10.3040605,-5.085524597,1.067430267,-1.202748871,5.333720339
10.3140635,-5.534740448,0.674647064,-1.575473785,5.794015718
10.3240655,-5.948180695,0.521515503,-1.997745667,6.296333834
10.3340685,-6.295757904,0.603993988,-2.205214233,6.698085259
10.3440705,-6.691834259,0.92672287,-2.197879486,7.104233615
10.3540735,-6.940467224,1.263821869,-2.124232635,7.367475504
10.3640755,-7.104376373,1.567989349,-2.157463531,7.588504671
10.3740785,-7.487878876,2.021246796,-2.198478241,8.061456149
10.3840805,-8.015232239,2.463427277,-2.497406616,8.749254917
10.3940835,-8.606802063,2.703677673,-3.153043213,9.556599616
10.4040855,-9.017398224,2.993774414,-3.89400238,10.26836942
10.4140875,-9.349557495,3.319048004,-4.437821503,10.86851253
10.4240905,-9.679920502,3.657793579,-4.883444824,11.44239259
10.4340925,-9.846074982,4.120032349,-5.261558533,11.8997419
10.4440955,-9.838889923,4.66040863,-5.41169632,12.157698
10.4540975,-9.699829102,5.252726898,-5.365592194,12.26651556
10.4641005,-9.335786133,5.775739288,-5.318440247,12.19843735
10.4741025,-8.715775452,6.176006927,-5.325325928,11.93594988
10.4841055,-7.852221222,6.549330597,-5.367987213,11.54843696
10.4941075,-6.938072205,6.897955627,-5.448070679,11.19821914
10.5041105,-6.167324982,7.042105865,-5.575006714,10.89531332
10.5141125,-5.505102081,6.937323761,-5.688321075,10.52566419
10.5241155,-5.058580627,6.75260788,-5.602848816,10.12812253
10.5341175,-4.80321167,6.517746277,-5.439089355,9.753745531
10.5441205,-4.670737152,6.193520508,-5.213209076,9.346284326
10.5541225,-4.619693298,5.812562714,-4.971611481,8.935567816
10.5641255,-4.620441742,5.436394958,-4.821324005,8.610925455
10.5741275,-4.762795715,5.097050629,-4.719086609,8.422228123
10.5841305,-5.086722107,4.658312988,-4.699776764,8.346407809
10.5941325,-5.364095306,4.211641846,-4.773872681,8.324740588
10.6041355,-5.379812622,3.877087555,-4.587360535,8.063378227
10.6141375,-5.329816589,3.61094101,-4.21583313,7.695394001
10.6241395,-5.338049469,3.350782013,-4.010909271,7.470602748
10.6341425,-5.463338928,3.06322998,-3.966002655,7.413543499
10.6441445,-5.682932281,2.819536743,-3.90927063,7.451704746
10.6541475,-6.057303772,2.739004211,-3.78053833,7.647584136
10.6641495,-6.406078491,2.784509583,-3.566034393,7.84269957
10.6741525,-6.660699005,2.988535309,-3.351680145,8.033057595
10.6841545,-6.760691071,3.305126953,-3.310964813,8.221514211
10.6941575,-6.670279083,3.694617004,-3.602109375,8.43314946
10.7041595,-6.470744019,4.108955383,-4.239783325,8.759555077
10.7141625,-6.002966766,4.522096252,-5.09450592,9.079590029
10.7241645,-5.100343781,4.939578094,-5.9335112,9.253080222
10.7341675,-4.123774567,5.42097702,-6.298452301,9.277015141
10.7441695,-3.32533493,5.867049408,-6.109844513,9.100017644
10.7541725,-3.134182434,6.137237549,-5.649551697,8.9110167
10.7641745,-3.561094666,6.146069183,-5.011728058,8.693272097
10.7741775,-4.181105347,6.091582489,-4.217928772,8.507640229
10.7841795,-4.746180267,6.236331482,-3.509302368,8.586807357
10.7941815,-5.202431488,6.677464142,-2.883004761,8.942345174
10.8041845,-5.334606628,7.327861633,-2.46417572,9.392962577
10.8141865,-5.049599304,8.146808624,-2.100731506,9.812340024
10.8241895,-4.71309906,9.224118347,-1.739532623,10.50350588
10.8341915,-4.459975433,10.45605652,-1.490001526,11.46475483
10.8441945,-4.237837372,11.73843979,-1.268312531,12.54427562
10.8541965,-4.154909821,12.97846115,-0.917741547,13.65818359
10.8641995,-4.378844147,14.06370438,-0.309406586,14.73288123
10.8742015,-4.737797699,14.89986557,0.389040985,15.63982333
10.8842045,-5.28296402,15.46269516,1.062041473,16.37475443
10.8942065,-5.874084778,15.80967361,1.51874176,16.93390765
10.9042095,-6.367309113,16.01804031,1.822160797,17.33321986
10.9142115,-6.810238037,16.16653152,1.972597961,17.6529665
10.9242145,-6.96905777,16.332686,1.846709747,17.85314357
10.9342165,-6.803352356,16.51530624,1.401086426,17.91658413
10.9442195,-6.617888031,16.70585999,0.866098938,17.98978397
10.9542215,-6.520141296,16.78654221,0.439635773,18.01370371
10.9642235,-6.567293243,16.82097061,0.094154205,18.05777555
10.9742265,-6.810537415,16.75660446,-0.289947052,18.09008796
10.9842285,-7.081174622,16.58670776,-0.695603485,18.04842854
10.9942315,-7.220983887,16.26861923,-1.17475708,17.83789882
11.0042335,-7.369624786,15.82000214,-1.79252243,17.54414357
11.0142365,-7.619754639,15.04925491,-2.448009338,17.0450428
11.0242385,-7.878416748,13.93242737,-2.925516357,16.27085212
11.0342415,-8.271948395,12.59181519,-3.048410797,15.3711336
11.0442435,-9.116492157,11.52498367,-2.822829895,14.96342362
11.0542465,-9.691596222,10.90841583,-2.581082611,14.81831842
11.06424879,-9.549541626,10.58269318,-2.667003937,14.50172576
11.07425179,-8.904981995,10.77025314,-2.746937714,14.24228647
11.08425379,-7.484436035,11.3932576,-2.609972534,13.87930323
11.09425679,-5.367538147,11.73364975,-2.420765991,13.12818
11.10425879,-3.254532166,11.77361664,-2.200424194,12.41176438
11.11426079,-1.507515106,11.26422592,-1.961520996,11.53269058
11.12426379,-0.426762543,10.10518616,-1.916165314,10.29410526
11.13426579,0.063018951,8.740623779,-2.130968628,8.996860715
11.14426879,0.165106659,7.31888031,-2.509082336,7.738783068
11.15427079,-0.358354797,5.642067261,-2.528990936,6.193313838
11.16427379,-1.159039764,4.013453979,-2.257455597,4.748398866
11.17427579,-1.973346405,2.715054016,-1.810485077,3.813590245
11.18427879,-2.606080627,1.755998383,-1.13149704,3.339980854
11.19428079,-2.824775848,0.989592133,-0.344284058,3.012836321
11.20428379,-2.790347443,0.320782928,0.363593903,2.832161906
11.21428579,-2.491269379,-0.212408295,0.880319366,2.650755098
11.22428879,-2.043849792,-0.596359863,1.26486969,2.476461668
11.23429079,-1.698218536,-0.903970184,1.48955246,2.433079288
11.24429379,-1.456620941,-1.094823303,1.581461334,2.412758294
11.25429579,-1.211430817,-1.166973267,1.837878113,2.491422723
11.26429779,-1.277892609,-1.054107971,2.231559448,2.779210446
11.27430079,-1.465751953,-0.733175354,2.307301941,2.830126699
11.28430279,-1.341809692,-0.250878296,2.180216217,2.572301678
11.29430579,-1.063837738,0.062869263,2.284848633,2.52115778
11.30430779,-0.957259369,0.369132385,2.655926971,2.847200782
11.31431079,-1.251397705,0.70907547,3.027454376,3.351755397
11.32431279,-1.81602356,1.122665405,3.157982941,3.81197789
11.33431579,-2.080074463,1.746717682,3.128494263,4.143091694
11.34431779,-1.978136444,2.73451355,3.128943329,4.602268408
11.35432079,-1.915267181,3.843407593,3.207529907,5.359876716
11.36432279,-1.990111542,4.856351166,3.270548859,6.183945377
11.37432579,-2.343227234,5.544619904,2.978655853,6.716093689
11.38432779,-2.750679932,6.280789032,2.082469482,7.16597726
11.39433079,-3.375630341,7.430398407,0.759221191,8.196469819
11.40433279,-4.430037689,8.778345337,-0.770447845,9.862969668
11.41433479,-5.56138504,9.917925568,-2.313738556,11.60377685
11.42433779,-6.462211761,10.68597839,-3.405717773,12.94408083
11.43433979,-6.974745941,11.25778931,-3.861669617,13.79483212
11.44434279,-7.10946579,11.98452805,-3.512745209,14.37055306
11.45434479,-6.788383484,13.15868637,-2.61281662,15.03529142
11.46434779,-6.271358643,14.48178497,-1.842668152,15.88859532
11.47434979,-5.622907104,15.60070816,-1.043330383,16.61588751
11.48435279,-4.368665314,16.39705215,-0.219593353,16.9704678
11.49435479,-2.504292297,16.60257477,0.414338379,16.79549479
11.50435779,-1.003363495,16.41980484,0.910406799,16.47560529
11.51435979,-0.514629822,16.02567444,1.332379303,16.08919885
11.52436279,-0.88930069,15.14819916,1.81243103,15.28213662
11.53436479,-2.003733215,13.880186,2.214345245,14.19781093
11.54436679,-3.628005524,12.42027191,2.848276978,13.24908526
11.55436979,-4.836292877,11.00676132,3.863316193,12.62789514
11.56437179,-5.550757141,9.857750702,4.508025513,12.17819559
11.57437479,-5.657485199,9.298064575,4.793332214,11.89273633
11.58437679,-4.715045013,9.321116638,4.959037628,11.5631708
11.59437979,-3.304079132,9.622440033,4.822371826,11.2589325
11.60438179,-2.118544464,9.983339539,4.330045624,11.08623444
11.61438479,-1.301693115,10.23825943,3.520229645,10.90451181
11.62438679,-0.813707886,10.22957748,2.549947357,10.57395893
11.63438979,-0.731079712,9.91178833,1.775457916,10.09605251
11.64439179,-0.995579681,9.323960724,1.395697632,9.480263412
11.65439479,-1.325194244,8.568032684,1.118923187,8.741814055
11.66439679,-1.577419739,7.885302429,0.948128357,8.097233775
11.67439979,-1.622326355,7.419171753,1.051413574,7.666910904
11.68440179,-1.557062073,7.288942566,1.306183777,7.566983685
11.69440379,-1.29181366,7.416926422,1.44734024,7.666444668
11.70440679,-1.019380188,7.55643631,1.242117004,7.725394509
11.71440879,-0.958905945,7.744894409,0.764460297,7.841383141
11.72441179,-1.024619293,8.046217804,0.287552032,8.116289289
11.73441379,-1.302441559,8.338859253,-0.065264282,8.440212502
11.74441679,-1.764680328,8.512198792,-0.326620789,8.699327909
11.75441879,-2.19159256,8.603209534,-0.559237061,8.895562844
11.76442179,-2.570604401,8.680149536,-0.674048309,9.077849089
11.77442379,-2.68182312,8.875343628,-0.639769592,9.293718572
11.78442679,-2.56716156,9.210496674,-0.599952393,9.580371095
11.79442879,-2.410437469,9.621691589,-0.749790802,9.94732849
11.80443179,-2.059567108,10.05863297,-1.009500732,10.31683118
11.81443379,-1.619781647,10.48479675,-1.240919495,10.68150442
11.82443579,-1.467997284,10.76261902,-1.41111557,10.9535488
11.83443879,-1.417701874,10.91619965,-1.542093201,11.11536526
11.84444079,-1.385518799,10.9539212,-1.678459625,11.16804722
11.85444379,-1.440155182,10.88087311,-1.700014801,11.10664202
11.86444579,-1.516197052,10.85677322,-1.595532074,11.07763968
11.87444879,-1.41934845,10.90197922,-1.446591797,11.08874784
11.88445079,-1.272354126,10.91290649,-1.398990784,11.07554009
11.89445379,-1.196012878,10.8570726,-1.27774292,10.99723144
11.90445579,-1.076860657,10.72848999,-1.11158844,10.83954589
11.91445879,-0.886157227,10.53239777,-0.908311157,10.6085676
11.92446079,-0.716709595,10.24679169,-0.683628387,10.29455003
11.93446379,-0.558488617,9.934840393,-0.466280365,9.961444702
11.94446579,-0.427361298,9.61345871,-0.371527405,9.630122463
11.95446779,-0.292940826,9.253756714,-0.468226318,9.270224568
11.96447079,-0.157322845,8.862919464,-0.596808929,8.884383648
11.97447279,-0.086969147,8.492290192,-0.72778656,8.523862364
11.98447579,0.05269043,8.186476135,-0.830173645,8.228630267
11.99447779,0.204325104,7.965236206,-0.834813995,8.011469963
12.00448079,0.154778137,7.725434875,-0.756676483,7.763946135
12.01448279,0.041014709,7.558981018,-0.658181305,7.587692592
12.02448579,0.019010468,7.472610626,-0.532592468,7.491590332
12.03448779,-0.088615723,7.365134125,-0.542771301,7.385638368
12.04449079,-0.33111145,7.344776459,-0.756826172,7.391086651
12.05449279,-0.546363831,7.422913971,-1.122964783,7.527231573
12.06449588,-0.684376831,7.632328491,-1.50003067,7.808386636
12.07449788,-0.816402283,7.960296478,-1.808239746,8.203813972
12.08449987,-1.006956024,8.373287659,-1.912872162,8.647831321
12.09450287,-1.204545135,8.753497009,-1.767823792,9.011095374
12.10450487,-1.372046814,9.087602234,-1.437610474,9.302351891
12.11450787,-1.53520752,9.317075043,-1.037193146,9.499500992
12.12450987,-1.598226471,9.4835289,-0.667761383,9.640412518
12.13451287,-1.454974365,9.633966064,-0.236657867,9.746089446
12.14451487,-1.235081635,9.858349457,0.219743042,9.937845222
12.15451787,-0.968036957,10.10952713,0.555943909,10.1709738
12.16451987,-0.742755432,10.31789383,0.796194305,10.37518887
12.17452287,-0.586330719,10.41773621,1.076112213,10.48956762
12.18452487,-0.421972504,10.46578629,1.339414673,10.55958214
12.19452787,-0.329315186,10.46548691,1.429078217,10.56774003
12.20452988,-0.21180954,10.41968216,1.362766113,10.51055522
12.21453188,-0.084424438,10.32133667,1.219514008,10.39347548
12.22453488,-0.177381134,10.14021332,1.193019104,10.21169353
12.23453688,-0.327219543,9.927355957,1.305734711,10.01820403
12.24453988,-0.386346588,9.756261749,1.476379852,9.874897694
12.25454188,-0.550854492,9.626930695,1.629361725,9.77936884
12.26454488,-0.849782867,9.506131897,1.723964996,9.698491113
12.27454688,-1.141825562,9.390871582,1.782642975,9.626528484
12.28454988,-1.176253967,9.322912903,1.771266632,9.562304318
12.29455188,-1.193318481,9.403894501,1.699416046,9.630433826
12.30455488,-1.243164825,9.496551819,1.607806549,9.711590865
12.31455688,-1.19346817,9.607022095,1.463656311,9.790890133
12.32455988,-1.046773224,9.753267975,1.29765152,9.894739503
12.33456188,-0.960552521,9.853858795,1.285826111,9.983713893
12.34456387,-0.906664581,9.942923584,1.43925705,10.08737978
12.35456688,-0.788410492,9.963131561,1.656156006,10.1305693
12.36456887,-0.707279205,9.932595062,1.852996674,10.12868625
12.37457187,-0.596359863,9.916129303,2.047891388,10.14293471
12.38457387,-0.459095306,9.923014984,2.304757233,10.19749483
12.39457687,-0.380209351,10.00294876,2.584974518,10.33855098
12.40457887,-0.357756042,10.0674646,2.737357635,10.43910723
12.41458187,-0.318537598,10.05144791,2.901416473,10.46667515
12.42458387,-0.213755493,9.95160553,3.0855336,10.42116412
12.43458687,-0.083975372,9.812993774,3.12175827,10.29792568
12.44458887,-0.054337006,9.641600189,2.979254608,10.09154917
12.45459088,-0.243094482,9.469607849,2.664908295,9.840442265
12.46459387,-0.581690369,9.281748505,2.370470581,9.597309507
12.47459588,-0.884810028,9.04598877,2.275418243,9.369649395
12.48459888,-1.162332916,8.805588684,2.392624512,9.198590215
12.49460088,-1.366059265,8.637488251,2.515369263,9.099417768
12.50460388,-1.523980865,8.551417236,2.596051483,9.065800446
12.51460588,-1.579964447,8.510252838,2.615810394,9.042298106
12.52460888,-1.499282227,8.48196167,2.595153351,8.995906951
12.53461088,-1.401535492,8.498726807,2.430795135,8.949939891
12.54461388,-1.411414948,8.500822449,2.283202057,8.914543516
12.55461588,-1.503473511,8.426277466,2.248174896,8.849682192
12.56461888,-1.567989349,8.378526764,2.417023773,8.8600398
12.57462088,-1.553020477,8.323291626,2.60817627,8.859550753
12.58462288,-1.46844635,8.21162384,2.838996277,8.811753551
12.59462588,-1.281485138,8.123606873,3.172652435,8.814812321
12.60462788,-1.130449219,8.136031036,3.624113617,8.978146578
12.61463088,-1.12206665,8.128097534,4.027973785,9.140545712
12.62463287,-1.094374237,8.015830994,4.193230133,9.112320255
12.63463588,-1.074914703,7.974367218,4.208498383,9.080607512
12.64463787,-1.156345367,8.116571503,4.192781067,9.208435298
12.65464088,-1.220861206,8.398435364,4.171525269,9.456523765
12.66464287,-1.185983734,8.776998138,4.225263519,9.813006957
12.67464587,-1.230441284,9.284143524,4.412673798,10.35282555
12.68464787,-1.24960144,9.830507355,4.632267151,10.93884261
12.69465087,-1.175355835,10.50814819,4.748575287,11.59101406
12.70465287,-1.149459686,11.31556915,4.838687897,12.36026955
12.71465488,-1.175655212,12.23361008,5.051545258,13.28764427
12.72465787,-1.407223663,13.15584229,5.37532196,14.28112569
12.73465988,-1.75390274,14.02134247,5.617967377,15.20643867
12.74466287,-2.066752167,14.96872238,5.702242126,16.15084145
12.75466488,-2.242636414,16.03854767,5.696853333,17.16736926
12.76466788,-2.016456757,16.95718735,5.768254852,18.02456836
12.77466988,-2.125430145,17.75053757,6.137237549,18.90144762
12.78467288,-2.437980194,18.47069,6.655609589,19.78401566
12.79467488,-2.620600433,19.05402695,7.125482483,20.51087492
12.80467788,-2.593357086,19.62643661,7.490423584,21.16669461
12.81467988,-2.298320618,20.27144531,7.527546387,21.74575194
12.82468188,-1.658251648,20.87693619,7.302713928,22.17940247
12.83468488,-0.824635162,21.51865173,6.845714264,22.5963758
12.84468688,-0.211959229,21.82266953,6.119424591,22.66541836
12.85468988,0.090411987,21.61744629,5.108277283,22.21298393
12.86469188,0.103285217,21.00911133,3.801494751,21.35052198
12.87469488,-0.102087708,20.02655457,2.233056335,20.15092678
12.88469688,-0.6529422,19.2032666,0.492475891,19.22067413
12.89469988,-1.389710083,18.70285721,-0.956959991,18.7788161
12.90470187,-1.835932159,17.91519516,-1.860181732,18.10483749
12.91470488,-1.902393951,16.64553543,-2.124382324,16.88804171
12.92470687,-1.711391144,15.27977554,-1.818418579,15.48247546
12.93470887,-1.479223938,14.06639877,-1.284628601,14.20218112
12.94471187,-1.786834259,13.0070517,-0.542172546,13.14040036
12.95471387,-2.168989563,11.90489365,0.756526794,12.12449344
12.96471687,-1.899699554,10.49302963,2.273921356,10.90335946
12.97471887,-1.415306854,8.7522995,3.238964539,9.439106489
12.98472187,-0.762514343,6.987170105,3.163820801,7.707900898
12.99472388,-0.154628448,5.473817139,2.103126526,5.865980328
13.00472687,0.014669495,3.889212341,0.565374298,3.930119073
13.01472888,-0.058677979,2.364333344,-1.07177124,2.596576372
13.02473187,-0.692310333,0.945733337,-2.373164978,2.646812641
13.03473388,-1.658551025,-0.481099548,-2.864143982,3.344483372
13.04473588,-2.416874084,-1.494791565,-2.39397171,3.715747934
13.05473888,-2.567610626,-2.26523941,-1.070424042,3.587442201
13.064741,-2.206411743,-2.939736786,0.448317719,3.70287644
13.074744,-1.796264648,-3.534300385,1.740580444,4.329834429
13.084746,-1.485061798,-4.030518494,2.354004822,4.898145218
13.094749,-1.42862915,-4.492906952,2.173779602,5.191580866
13.104751,-1.431922302,-4.647086334,1.586999817,5.115113029
13.114754,-1.110091553,-4.414020996,1.10575058,4.683862611
13.124756,-0.548459473,-4.173022156,0.881965942,4.300323898
13.134759,-0.022902374,-3.952231293,0.729133759,4.018991509
13.144761,0.361198883,-3.797004089,0.562230835,3.855360969
13.154764,0.627495117,-3.634442139,0.258662109,3.697272761
13.164766,0.699794769,-3.281925201,-0.19654129,3.361454183
13.174768,0.652493134,-2.812052307,-0.570912781,2.942673422
13.184771,0.618663483,-2.380649414,-0.674796753,2.550605182
13.194773,0.700992279,-1.90254364,-0.695453796,2.14352944
13.204776,0.780027924,-1.360520782,-0.681383057,1.709895678
13.214778,0.800235901,-0.905167694,-0.789608002,1.443324928
13.224781,0.733474731,-0.447419586,-1.093775482,1.390868172
13.234783,0.682580566,0.181422729,-1.325343933,1.501787927
13.244786,0.714314575,0.984353027,-1.264570313,1.754518244
13.254788,0.827179871,1.843416595,-1.020428009,2.263555744
13.26479,0.747545471,2.790796509,-0.853824463,3.012704034
13.274793,0.621956635,3.925736389,-0.781225433,4.050746774
13.284795,0.431851959,5.151088257,-0.821641388,5.234052055
13.294798,-0.085322571,6.352040863,-1.231040039,6.470793046
13.3048,-1.003513184,7.591164093,-2.031725006,7.922166212
13.314803,-2.11899353,9.017697601,-3.072510681,9.759576092
13.324805,-3.334465942,10.65858536,-4.049079895,11.87935827
13.334808,-4.2427771,12.43554016,-4.162394257,13.78293665
13.34481,-4.868475952,14.64614319,-3.606600037,15.84989376
13.354813,-5.442232819,17.32976257,-2.63976059,18.35502397
13.364815,-5.373675385,20.14645523,-1.407972107,20.89828775
13.374817,-3.921844482,22.43175293,-0.325872345,22.77434075
13.38482,-1.52817215,23.88567947,0.542771301,23.94066822
13.394822,0.552650757,24.83171219,1.458866272,24.88066808
13.404825,1.673968964,25.30128571,2.400857391,25.47000877
13.414827,1.586999817,25.16611679,3.329975281,25.43502974
13.42483,0.940194855,24.33115311,4.557123413,24.77208816
13.434832,0.727187805,23.06927719,6.321055298,23.93065173
13.444835,0.886755981,21.80365906,8.280780029,23.34003433
13.454837,1.04961731,20.64566711,9.705367584,22.83723773
13.46484,0.817300415,19.61281494,10.20697449,22.12493657
13.474842,-0.044756927,18.63280289,9.703721008,21.00822572
13.484844,-1.307231598,17.5629776,8.373886414,19.50100024
13.494847,-2.609673157,16.39735153,6.757547607,17.92618144
13.504849,-3.506607971,15.42826675,5.329217834,16.6951573
13.514852,-3.916455688,14.75840973,4.157155151,15.82501886
13.524854,-3.907324677,14.11025757,3.31725174,15.01235204
13.534857,-3.364703064,13.37753128,3.000959473,14.11684553
13.544859,-2.391876068,12.75796967,3.182531891,13.36470615
13.554862,-1.548529816,12.09155548,3.449576569,12.66898721
13.564864,-0.930315399,11.26198059,3.560495911,11.84798821
13.574867,-0.364791412,10.34588562,3.492088165,10.92543371
13.584869,-0.034727783,9.412726135,3.265010376,9.962977069
13.594871,-0.012723541,8.535999298,3.005150757,9.049551203
13.604874,-0.192499695,7.793842621,2.825973358,8.292596961
13.614876,-0.393082581,7.051985321,2.67598526,7.552874155
13.624879,-0.533490601,6.312223663,2.511327667,6.814363246
13.634881,-0.635877686,5.710175629,2.411335602,6.23096987
13.644884,-0.695154419,5.182223511,2.37406311,5.742373711
13.654886,-0.794697418,4.607867889,2.263742523,5.195047708
13.664889,-0.974323883,4.079616394,1.991309052,4.64304735
13.674891,-1.213676147,3.632945251,1.621577911,4.15942495
13.684894,-1.517095184,3.326831818,1.13149704,3.827489163
13.694896,-1.765428772,3.112028503,0.578546906,3.624386386
13.704898,-1.914967804,3.015628967,0.285606079,3.583669989
13.714901,-1.89670578,3.11128006,0.173638916,3.647972985
13.724903,-1.997745667,3.353775787,-0.013172607,3.903712758
13.734906,-2.236199799,3.706592102,-0.261955261,4.336823159
13.744908,-2.428849182,4.246669006,-0.539927216,4.921892664
13.754911,-2.663411407,4.84647171,-0.780776367,5.584949427
13.764913,-2.827769623,5.509443054,-0.889749756,6.25634865
13.774916,-2.81519577,6.251899109,-0.910706177,6.916715654
13.784918,-2.868035889,7.036118317,-1.018182678,7.666112887
13.794921,-2.890189819,7.759114838,-1.176553345,8.363093807
13.804923,-2.812351685,8.458011475,-1.274599457,9.003992663
13.814925,-2.851869507,9.21798111,-1.329385529,9.740205404
13.824928,-2.968027954,10.06821304,-1.269360352,10.57304968
13.83493,-3.032094727,10.8995842,-0.966689758,11.35469168
13.844933,-3.062631226,11.37739059,-0.26794281,11.78543678
13.854935,-2.952011261,11.53845566,0.695603485,11.9303895
13.864938,-2.713706818,11.53037247,1.618733826,11.95550054
13.87494,-2.310295715,11.35897888,2.37990097,11.83333411
13.884943,-1.778751068,11.14627121,2.823129272,11.63500649
13.894945,-1.307231598,10.88461533,2.914140015,11.34354077
13.904947,-0.9395961,10.51144135,2.61401413,10.87227252
13.91495,-0.731828156,10.07869125,2.152523804,10.33193828
13.924952,-0.669557648,9.625882874,1.814526672,9.818270499
13.934955,-0.682730255,9.260941772,1.761985931,9.451759494
13.944957,-0.742905121,9.012608185,1.941013641,9.249137704
13.95496,-0.748593292,8.873098297,2.191442871,9.170315543
13.964962,-0.707279205,8.781039734,2.29098587,9.102500697
13.974965,-0.668958893,8.707093506,2.168241119,8.997902693
13.984967,-0.738863525,8.713230743,1.912872162,8.951278635
13.99497,-0.839753723,8.815617828,1.618135071,9.002147806
14.004972,-0.99228653,8.952133942,1.299148407,9.100171496
14.014974,-1.172212372,9.031618652,1.086141357,9.171909309
14.024977,-1.261277161,9.079519043,0.994082794,9.220449378
14.034979,-1.35962265,9.135802002,0.995879059,9.289953018
14.044982,-1.459614716,9.19807251,1.036444702,9.370657962
14.054984,-1.519490204,9.257349243,1.219963074,9.460215399
14.06498704,-1.584155731,9.311985626,1.54104538,9.570655492
14.07498904,-1.593586121,9.339079285,1.808838501,9.64519649
14.08499204,-1.569635925,9.374555511,1.905088348,9.694091478
14.09499404,-1.562450867,9.385033722,1.809137878,9.684683296
14.10499604,-1.55152359,9.424551544,1.6708255,9.696445489
14.11499904,-1.499581604,9.43562851,1.508862305,9.672460691
14.12500104,-1.454525299,9.439370728,1.446142731,9.659642456
14.13500404,-1.381776581,9.440568237,1.499581604,9.658280393
14.14500604,-1.351988525,9.400152283,1.685494995,9.645290524
14.15500904,-1.33387619,9.421258392,1.873953094,9.697991317
14.16501104,-1.324445801,9.4543396,2.011816406,9.756336361
14.17501404,-1.284329224,9.520801392,2.124232635,9.839081511
14.18501604,-1.259480896,9.613309021,2.226320343,9.947788937
14.19501904,-1.305435333,9.672885132,2.304457855,10.02892787
14.20502104,-1.269959106,9.730365601,2.30625412,10.08025887
14.21502304,-1.30109436,9.728569336,2.33544342,10.08921225
14.22502604,-1.340612183,9.69653595,2.440075836,10.08831108
14.23502804,-1.34794693,9.750423889,2.632425842,10.18908204
14.24503104,-1.287322998,9.865534515,2.88195694,10.35816816
14.25503304,-1.165177002,10.0063916,3.092419281,10.5379584
14.26503604,-1.011296997,10.17104919,3.173999634,10.70267429
14.27503804,-0.852028198,10.30966095,3.224145355,10.83559755
14.28504104,-0.731678467,10.3713327,3.240910492,10.89051864
14.29504304,-0.780626678,10.35202286,3.29030777,10.89035722
14.30504604,-0.878373413,10.33885025,3.392844543,10.91671922
14.31504804,-0.87283493,10.29648834,3.665128326,10.96415426
14.32505004,-0.837358704,10.26819717,4.019142151,11.05850561
14.33505304,-0.75353302,10.30127838,4.391268311,11.22351931
14.34505504,-0.60728714,10.37282959,4.755460968,11.42710814
14.35505804,-0.480500793,10.47461792,5.010231171,11.62114099
14.36506004,-0.463585968,10.59152481,5.116510162,11.77174524
14.37506304,-0.557440796,10.71052734,5.059628448,11.85858239
14.38506504,-0.756227417,10.82713486,4.947810974,11.9280997
14.39506804,-0.866847382,11.00346817,4.897814941,12.07544315
14.40507004,-0.81325882,11.28652954,4.937632141,12.34614718
14.41507304,-0.768352203,11.70236481,5.008883972,12.75243607
14.42507504,-0.768501892,12.14020432,5.081782379,13.18331021
14.43507704,-0.910107422,12.61202316,5.20572464,13.67446499
14.44508004,-1.13149704,13.10419968,5.25602005,14.16425365
14.45508204,-1.376238098,13.58020981,5.308261414,14.64560579
14.46508504,-1.542392578,14.27910645,5.425916748,15.35292898
14.47508704,-1.38656662,15.2948941,5.516628113,16.31838038
14.48509004,-1.011596375,16.3088855,5.584137726,17.26805338
14.49509204,-0.599653015,17.16839813,5.672154694,18.09107009
14.50509504,-0.211210785,17.91115356,5.791606293,18.8254279
14.51509704,0.055833893,18.53939713,5.769602051,19.41650512
14.52509904,0.149988098,19.11869247,5.514831848,19.89875043
14.53510204,0.255967712,19.5761412,4.989125061,20.20351932
14.54510404,0.512234802,19.80681152,4.282145233,20.27088886
14.55510704,0.698148193,19.68601273,3.553161163,20.01627993
14.56510904,0.460891571,19.14189423,3.059188385,19.39028543
14.57511204,-0.019010468,18.4720372,2.867137756,18.69323403
14.58511404,-0.548459473,17.66012558,2.795885925,17.88848293
14.59511704,-0.624651031,16.6233815,2.662064209,16.84676786
14.60511904,-0.611328735,15.71252563,2.431992645,15.91137244
14.61512204,-0.377065887,14.55827591,1.977986755,14.69687068
14.62512404,-0.364791412,13.07411224,1.429377594,13.1570743
14.63512604,-0.764759674,11.43861328,1.246457977,11.5317123
14.64512904,-0.763562164,9.750872955,1.647174683,9.918454265
14.65513104,0.214953003,8.392896881,2.308050385,8.707124636
14.66513404,1.370549927,7.159910889,2.668800201,7.76306805
14.67513604,1.478026428,5.323230286,2.50983078,6.067997474
14.68513904,1.120420074,2.884052582,2.028282166,3.699598489
14.69514104,0.408650208,0.259111176,1.246457977,1.33708305
14.70514404,-0.199085999,-1.895657959,0.328866119,1.934245914
14.71514604,-0.520018616,-3.22594162,-0.215102692,3.274658435
14.72514904,-0.974922638,-3.810326385,-0.364641724,3.94993986
14.73515104,-1.422491913,-4.040547638,0.156873779,4.286504151
14.74515304,-1.718426514,-4.443509674,1.224753113,4.919124728
14.75515604,-1.934427338,-5.03717514,2.045496368,5.770545721
14.76515804,-2.020498352,-5.565276947,2.265389099,6.339298767
14.77516104,-1.948049011,-5.861061859,1.703757019,6.407006247
14.78516304,-1.86048111,-5.727689209,0.620609436,6.054169613
14.79516604,-1.591789856,-5.307662659,-0.216749268,5.545453822
14.80516804,-1.157991943,-4.769082642,-0.781225433,4.96944743
14.81517104,-0.589174805,-4.047732697,-1.226848755,4.27041272
14.82517304,-0.101039886,-3.237168274,-1.490450592,3.565236382
14.83517604,0.239202576,-2.163750458,-1.932032318,2.910632714
14.84517804,0.464633789,-0.817749481,-2.754122772,2.910290538
14.85518004,0.7020401,0.551752625,-3.305875397,3.424339849
14.86518304,0.79799057,1.759441223,-3.035537567,3.598181581
14.87518504,0.629890137,2.62688736,-2.132315826,3.441521403
14.88518804,0.405806122,3.241509247,-1.197958832,3.479535338
14.89519004,0.73018158,3.867357788,-0.3662883,3.952693831
14.90519304,0.94663147,4.358486481,0.369880829,4.475413653
14.91519504,0.590671692,4.658762054,0.782872009,4.760866046
14.92519804,0.370329895,5.345833282,0.60848465,5.393081798
14.93520004,-0.267044678,6.321354675,0.002694397,6.326993366
14.94520304,-0.833017731,7.180118866,-0.149838409,7.229832434
14.95520504,-0.741707611,7.947423248,0.001047821,7.98195888
14.96520704,-0.283510437,8.59901825,-0.111218719,8.604409487
14.97521004,0.106728058,9.486971741,-0.527053986,9.50220025
14.98521204,0.124091949,10.86934708,-1.096020813,10.92517123
14.99521504,-0.048349457,12.44092896,-1.599723358,12.54345111
15.00521704,-0.410895538,13.75130402,-1.221909027,13.81159871
15.01522004,-0.416883087,14.7016777,-0.175285492,14.70863161
15.02522204,-0.685873718,15.52257065,0.874930573,15.56233035
15.03522504,-0.730031891,16.43642029,1.323996735,16.50581188
15.04522704,-0.313298492,17.44607071,1.269060974,17.49497227
15.05522904,-0.160615997,18.32399506,1.406924286,18.37862966
15.06523192,0.086220703,18.94819702,1.556014252,19.01217464
15.07523392,0.164807281,19.13590668,1.692979431,19.21135771
15.08523692,-0.006885681,18.98502045,1.832788696,19.07328402
15.09523892,-0.280067596,18.59118942,1.931134186,18.69331542
15.10524192,-0.663869476,17.89902878,2.422412567,18.0744028
15.11524392,-0.761466522,16.97335373,3.265160065,17.30132476
15.12524692,-0.909358978,15.95247665,4.055366821,16.48497635
15.13524892,-1.401236115,14.8742688,4.556824036,15.61960244
15.14525192,-1.893262939,13.84935013,4.617298279,14.72101854
15.15525392,-2.393822021,12.88370819,4.393064575,13.82097453
15.16525592,-2.860401764,12.05922272,4.111350403,13.05794597
15.17525892,-3.060086517,11.56360336,4.193080444,12.67528997
15.18526092,-2.803220673,11.37589371,4.530478821,12.56161781
15.19526392,-2.379601593,11.23309067,4.79857132,12.44472243
15.20526592,-1.917662201,11.05091949,4.915927277,12.24608472
15.21526892,-1.51754425,10.93730576,4.791086884,12.03669852
15.22527092,-1.142873383,10.84629501,4.411775665,11.76486462
15.23527392,-0.84708847,10.7070845,4.025279388,11.47005194
15.24527592,-0.628542938,10.51802765,3.848946075,11.21776973
15.25527792,-0.464184723,10.25996429,3.83322876,10.96248044
15.26528092,-0.354612579,9.97375946,3.855233002,10.69880598
15.27528292,-0.475261688,9.613309021,3.939807129,10.40017616
15.28528592,-0.609083405,9.236243134,3.896696777,10.04307799
15.29528792,-0.683628387,8.930429077,3.501069489,9.616516981
15.30529092,-0.728235626,8.748856659,2.967429199,9.267062966
15.31529292,-0.887803802,8.688083038,2.650388489,9.126639119
15.32529592,-0.914448395,8.559650116,2.647843781,9.006381219
15.33529792,-0.988095245,8.405470734,2.586920471,8.849882937
15.34529992,-1.037043457,8.35442688,2.36238739,8.743728141
15.35530292,-0.893042908,8.524922333,1.993704071,8.80037967
15.36530492,-0.863703918,8.700507202,1.756746826,8.918013761
15.37530792,-0.989741821,8.672814789,1.801653442,8.913094881
15.38530992,-1.175355835,8.574618988,1.855691071,8.85150504
15.39531292,-1.381327515,8.560099182,1.82769928,8.861368312
15.40531492,-1.361269226,8.703201599,1.801054688,8.991249633
15.41531792,-1.079854431,8.937015381,1.857187958,9.191598154
15.42531992,-0.762514343,9.219178619,2.168390808,9.501399962
15.43532292,-0.570164337,9.387728119,2.545007629,9.743284376
15.44532492,-0.543968811,9.410630493,2.859353943,9.850470715
15.45532692,-0.546214142,9.421857147,3.161725159,9.9532029
15.46532992,-0.521365814,9.419761505,3.377576294,10.02056639
15.47533192,-0.477806396,9.398056641,3.483855286,10.03439162
15.48533492,-0.440683594,9.34431839,3.485352173,9.982893767
15.49533692,-0.464633789,9.269174652,3.524570618,9.927541555
15.50533992,-0.469124451,9.199719086,3.647614746,9.907572979
15.51534192,-0.570164337,9.175469513,3.729644165,9.920915973
15.52534492,-0.686173096,9.147028656,3.728895721,9.901698342
15.53534692,-0.75353302,9.135802002,3.683090973,9.879061157
15.54534892,-0.817450104,9.174571381,3.583248596,9.883352427
15.55535192,-0.799786835,9.229058075,3.352877655,9.851749109
15.56535392,-0.72314621,9.2566008,2.998265076,9.756904851
15.57535692,-0.626746674,9.306447144,2.714155884,9.714392003
15.58535892,-0.567919006,9.359586639,2.61401413,9.734344556
15.59536192,-0.584235077,9.342671814,2.639311523,9.725883639
15.60536392,-0.714763641,9.248218231,2.780617676,9.683607911
15.61536692,-0.884061584,9.14418457,2.914439392,9.638030572
15.62536892,-0.978814545,9.072333984,2.945574646,9.588625127
15.63537092,-1.027014313,8.984616394,2.91473877,9.501252141
15.64537392,-1.090182953,8.905730438,2.843187561,9.411920581
15.65537592,-1.102607117,8.921148376,2.794239349,9.413309957
15.66537892,-0.977766724,8.999435577,2.74035141,9.458086187
15.67538092,-0.918939056,9.025182037,2.727627869,9.473030855
15.68538392,-0.926273804,9.088350677,2.748733978,9.54000208
15.69538592,-0.877475281,9.169781342,2.710563354,9.602187585
15.70538892,-0.826281738,9.207053833,2.579885101,9.597311547
15.71539092,-0.861458588,9.234895935,2.514770508,9.609863919
15.72539292,-0.951720886,9.246721344,2.589764557,9.649585935
15.73539592,-1.008901978,9.217681732,2.680775299,9.652465795
15.74539792,-0.982407074,9.232650604,2.833457794,9.707494214
15.75540092,-0.902473297,9.322463837,3.004552002,9.836164027
15.76540292,-0.780926056,9.42739563,3.1054422,9.9563751
15.77540592,-0.681981812,9.512119446,3.141217804,10.040556
15.78540792,-0.665665741,9.577832794,3.173101501,10.11170436
15.79541092,-0.705782318,9.606123962,3.179388428,10.14318772
15.80541292,-0.782123566,9.597292328,3.132086792,10.12569528
15.81541492,-0.853525085,9.553134155,3.142415314,10.09285149
15.82541792,-0.929117889,9.514664154,3.194057922,10.07938986
15.83541992,-1.040336609,9.489516449,3.243305511,10.08227421
15.84542292,-1.060993652,9.460776215,3.27743454,10.06844433
15.85542492,-1.066083069,9.4437117,3.338357849,10.07297657
15.86542792,-1.087638245,9.46721283,3.419638824,10.12447556
15.87542992,-1.032852173,9.485774231,3.396586761,10.1283512
15.88543292,-1.069974976,9.498647461,3.321293335,10.1192954
15.89543492,-1.076112213,9.49176178,3.259022827,10.09320509
15.90543692,-1.088386688,9.505682831,3.273392944,10.1122546
15.91543992,-1.159488831,9.507628784,3.291355591,10.12780534
15.92544192,-1.19930603,9.534273376,3.347189484,10.17567596
15.93544492,-1.210832062,9.602980499,3.412154388,10.26285274
15.94544692,-1.202449493,9.674980774,3.416794739,10.33080946
15.95544992,-1.239272919,9.755662994,3.347488861,10.3881875
15.96545192,-1.233435059,9.855804749,3.265309753,10.45564427
15.97545492,-1.170565796,9.967173157,3.180735626,10.5276704
15.98545692,-1.136287079,10.05623795,3.124602356,10.59161035
15.99545892,-1.19586319,10.20428009,3.180735626,10.75520804
16.00546192,-1.226998444,10.43390259,3.282374268,11.00662661
16.01546392,-1.293310547,10.6593338,3.312162323,11.23674635
16.02546692,-1.406325531,10.91096054,3.334915009,11.49558478
16.03546892,-1.46724884,11.19985977,3.426973572,11.80397501
16.04547192,-1.363215179,11.50148254,3.559597778,12.1166494
16.05547392,-1.243613892,11.8882782,3.653302917,12.49897421
16.06547679,-1.23089035,12.39841736,3.765569458,13.01596548
16.07547879,-1.224004669,13.00256104,3.869902496,13.62134084
16.08548079,-1.316063232,13.62062576,3.92214386,14.23505114
16.09548379,-1.470541992,14.16968399,3.998634796,14.79633463
16.10548579,-1.45796814,14.74209366,4.254752197,15.41291383
16.11548879,-1.282682648,15.28441589,4.558769989,16.00128207
16.12549079,-1.075663147,15.77793961,4.683161316,16.49340563
16.13549379,-0.971928864,16.33582947,4.608616333,17.00127391
16.14549579,-0.783770142,16.81198929,4.269571381,17.36336716
16.15549779,-0.597257996,17.12034805,3.808230743,17.54895028
16.16550079,-0.247884521,17.39802063,3.356619873,17.72059439
16.17550279,0.320333862,17.49292328,3.040776672,17.75813339
16.18550579,0.673449554,17.16016525,2.880010986,17.41319239
16.19550779,0.727038116,16.67801788,2.732866974,16.91607008
16.20551079,0.625549164,16.07207794,2.811303864,16.32808717
16.21551279,0.376167755,15.26450729,3.211721191,15.6032637
16.22551579,0.29952713,14.55632996,3.71617218,15.02619027
16.23551779,0.692460022,13.96476013,4.133803711,14.58020437
16.24551979,0.598455505,13.02396652,4.28947998,13.72521371
16.25552279,0.449215851,11.94411209,3.959865417,12.59143132
16.26552479,0.120050354,10.66053131,3.534150696,11.2317212
16.27552779,-0.660726013,9.078920288,3.324586487,9.691038529
16.28552979,-1.402134247,7.539222107,2.905458069,8.200459561
16.29553279,-1.637295227,6.20848938,2.027533722,6.733273278
16.30553479,-1.550475769,5.001549225,0.948278046,5.321531829
16.31553779,-1.297352142,4.051025848,0.133522339,4.255791492
16.32553979,-0.923878784,3.148851929,-0.369282074,3.302300672
16.33554179,-0.950822754,2.150877228,-0.705782318,2.455293351
16.34554479,-1.050515442,1.338815918,-0.680484924,1.832776715
16.35554679,-0.932411041,0.579594727,-0.245339813,1.124949786
16.36554979,-1.16308136,-0.121397552,-0.01047821,1.169446625
16.37555179,-1.471889191,-0.45280838,0.269739075,1.563410499
16.38555479,-1.334025879,-0.56043457,0.737666016,1.624149963
16.39555679,-1.460812225,-0.73242691,0.868044891,1.850384682
16.40555879,-1.513652344,-0.904119873,0.57690033,1.855098421
16.41556179,-1.339264984,-0.881367188,0.044756927,1.603883412
16.42556379,-1.324745178,-0.834813995,-0.498014374,1.643131921
16.43556679,-1.156345367,-0.722547455,-0.958157501,1.666515896
16.44556879,-0.862656097,-0.55579422,-1.307381287,1.662025447
16.45557179,-0.737815704,-0.242645416,-1.623972931,1.80014913
16.46557379,-0.714763641,0.217797089,-1.857637024,2.002283184
16.47557679,-0.573457489,0.617615662,-1.943258972,2.118149671
16.48557879,-0.29952713,1.008452911,-2.053878937,2.30762052
16.49558079,0.035925293,1.604663086,-2.163600769,2.693956669
16.50558379,0.542771301,2.208507385,-1.953437805,2.998003471
16.51558579,1.156495056,2.650538177,-1.309925995,3.174703066
16.52558879,1.364712067,2.952610016,-0.475710754,3.287346293
16.53559079,1.373992767,3.133284302,0.219443665,3.428335188
16.54559379,1.296903076,3.282673645,0.757873993,3.610024493
16.55559579,1.075064392,3.500770111,0.805325317,3.749627139
16.56559879,0.527952118,3.93845993,0.041912842,3.973909504
16.57560079,-0.477656708,4.66983902,-1.084943848,4.817951386
16.58560279,-1.164877625,5.591023407,-1.928888855,6.028025782
16.59560579,-1.519041138,6.410120087,-2.03007843,6.893355057
16.60560779,-1.373843079,7.205865326,-1.416803741,7.471229667
16.61561079,-1.008153534,8.410410461,-0.903371429,8.51865351
16.62561279,-1.329834595,9.914782104,-0.932710419,10.04695541
16.63561579,-1.708247681,11.35284164,-1.177601166,11.54087813
16.64561779,-1.855691071,12.62175293,-1.350791016,12.8287518
16.65561979,-1.885179749,13.77211075,-1.398841095,13.9707442
16.66562279,-1.904788971,14.88399857,-1.226100311,15.05539625
16.67562479,-1.655407562,15.96475113,-0.847687225,16.07271683
16.68562779,-1.417103119,16.83938232,-0.471669159,16.9054858
16.69562979,-1.333576813,17.51822067,-0.076790314,17.56907452
16.70563279,-0.891845398,17.92238022,0.291144562,17.94691801
16.71563479,-0.763113098,17.99258423,0.86235672,18.02939511
16.72563779,-0.912801819,17.80771866,1.550924835,17.89841945
16.73563979,-0.914747772,17.39966721,2.050136719,17.54389475
16.74564179,-0.960402832,16.70092026,2.231709137,16.87671878
16.75564479,-1.188378754,15.86715408,2.312990112,16.07882912
16.76564679,-1.304986267,15.10269379,2.620450745,15.38379377
16.77564979,-1.356329498,14.3593396,3.129392395,14.75884007
16.78565179,-1.340612183,13.65116226,3.620970154,14.18671551
16.79565479,-1.180445251,13.05794586,4.052672424,13.7232487
16.80565679,-1.12565918,12.49811005,4.232298889,13.24319513
16.81565979,-1.166673889,11.90010361,4.12572052,12.64891947
16.82566179,-1.21577179,11.37694153,3.8764888,12.08056559
16.83566379,-1.185235291,10.97353043,3.584146729,11.60470855
16.84566679,-1.121617584,10.64421524,3.298690338,11.19994206
16.85566879,-1.077758789,10.38450531,3.177741852,10.91318275
16.86567179,-0.987197113,10.18601807,3.139571228,10.70450511
16.87567379,-0.861608276,10.07255402,2.965932312,10.53543866
16.88567679,-0.73362442,10.05354355,2.667153625,10.4271593
16.89567879,-0.656534729,10.09620483,2.338886261,10.3843526
16.90568079,-0.614921265,10.05429199,2.105222168,10.29071795
16.91568379,-0.541424103,9.934391327,1.968556366,10.14201584
16.92568579,-0.501606903,9.823172607,1.907782745,10.01927964
16.93568879,-0.531844025,9.679920502,1.808838501,9.861826185
16.94569079,-0.639320526,9.574090576,1.764979706,9.756387367
16.95569379,-0.681383057,9.559720459,1.679956512,9.730097225
16.96569579,-0.573756866,9.607920227,1.648222504,9.765140319
16.97569779,-0.642763367,9.622589722,1.791773987,9.809068851
16.98570079,-0.711620178,9.549242249,1.910926208,9.764531211
16.99570279,-0.748742981,9.46945816,1.786834259,9.665610719
17.00570579,-0.845441895,9.508826294,1.663191376,9.690136998
17.01570779,-1.035696259,9.546996918,1.733844452,9.758280252
17.02571079,-1.148112488,9.501341858,1.870659943,9.751565413
17.03571279,-1.169667664,9.486372986,1.899400177,9.74510728
17.04571579,-1.041683807,9.567653961,1.81826889,9.794447878
17.05571779,-0.900826721,9.685908051,1.851350098,9.902312898
17.06571992,-0.813857574,9.769733734,2.041305084,10.01383981
17.07572292,-0.801433411,9.781409454,2.119292908,10.04040183
17.08572492,-0.910855865,9.737251282,2.001936951,9.982558414
17.09572792,-1.009949799,9.783954163,1.681752777,9.978679775
17.10572992,-0.785267029,9.961185608,1.486109619,10.10199905
17.11573292,-0.560883636,10.07569748,1.671723633,10.22882838
17.12573492,-0.514480133,10.10608429,2.08157135,10.33104877
17.13573692,-0.536634064,10.10204269,2.403102722,10.39779522
17.14573992,-0.674647064,9.951904907,2.448458405,10.27085724
17.15574192,-0.757724304,9.860145721,2.326013031,10.15908246
17.16574492,-0.722547455,9.855505371,2.178569641,10.1192503
17.17574692,-0.577648773,9.867630157,2.149230652,10.11548296
17.18574992,-0.519868927,9.842033386,2.230062561,10.10490296
17.19575192,-0.609532471,9.796228638,2.248174896,10.06935528
17.20575492,-0.701291656,9.703870697,2.215692444,9.978286902
17.21575692,-0.672551422,9.58187439,2.175875244,9.848810858
17.22575892,-0.652044067,9.484576721,2.127525787,9.742110809
17.23576192,-0.699645081,9.441915436,2.041903839,9.685486133
17.24576392,-0.711021423,9.407337341,1.931134186,9.6297885
17.25576692,-0.658031616,9.366172943,1.841021576,9.568048999
17.26576892,-0.731229401,9.338181152,1.775457916,9.533549941
17.27577192,-0.77927948,9.330547028,1.731150055,9.521725939
17.28577392,-0.845441895,9.26124115,1.755998383,9.464084211
17.29577692,-0.929566956,9.232949982,1.778152313,9.448454145
17.30577892,-0.892294464,9.255103912,1.770667877,9.465115032
17.31578092,-0.821940765,9.356892242,1.762734375,9.556895497
17.32578392,-0.719853058,9.470206604,1.82650177,9.671561935
17.33578592,-0.589623871,9.566007385,1.981279907,9.786808656
17.34578892,-0.489631805,9.644743652,2.156715088,9.895061364
17.35579092,-0.412691803,9.694440308,2.285447388,9.968738996
17.36579392,-0.354462891,9.64624054,2.304008789,9.923913391
17.37579592,-0.399369507,9.609267426,2.322121124,9.893925559
17.38579792,-0.456700287,9.596094818,2.327210541,9.884812584
17.39580092,-0.469573517,9.57364151,2.333048401,9.865000045
17.40580292,-0.484542389,9.533973999,2.392624512,9.841549349
17.41580592,-0.450263672,9.523046722,2.396815796,9.830355142
17.42580792,-0.411045227,9.54205719,2.275418243,9.818214796
17.43581092,-0.427960052,9.511371002,2.215842133,9.775442931
17.44581292,-0.47151947,9.473649445,2.196981354,9.7364825
17.45581592,-0.592917023,9.437125397,2.139351196,9.69472588
17.46581792,-0.617915039,9.414672089,2.074835358,9.660373248
17.47581992,-0.63063858,9.376202087,2.056423645,9.619758251
17.48582292,-0.690214691,9.386530609,2.084565125,9.639956688
17.49582492,-0.72778656,9.332792358,2.06046524,9.585207535
17.50582792,-0.727187805,9.301357727,2.017504578,9.545385398
17.51582992,-0.782273254,9.333840179,2.015408936,9.580939261
17.52583292,-0.874930573,9.322463837,2.045945435,9.584348085
17.53583492,-0.916993103,9.26947403,2.095791779,9.547584423
17.54583692,-0.891246643,9.279203796,2.145189056,9.565551723
17.55583992,-0.877624969,9.342073059,2.172133026,9.631340328
17.56584192,-0.826281738,9.410031738,2.130818939,9.683585502
17.57584492,-0.763113098,9.45314209,2.098037109,9.713186742
17.58584692,-0.669857025,9.537267151,2.08276886,9.784993575
17.59584992,-0.630788269,9.651479645,2.115101624,9.90063675
17.60585192,-0.611777802,9.691296844,2.153871002,9.946590717
17.61585492,-0.578696594,9.709259491,2.205812988,9.973475851
17.62585692,-0.538130951,9.704469452,2.25236618,9.976946711
17.63585892,-0.546663208,9.73156311,2.235002289,9.999869822
17.64586192,-0.64470932,9.71285202,2.16704361,9.972523376
17.65586392,-0.675694885,9.68007019,2.125729523,9.933732857
17.66586692,-0.620609436,9.678573303,2.18335968,9.941176829
17.67586892,-0.605640564,9.674980774,2.241139526,9.94961104
17.68587192,-0.682879944,9.645641785,2.306104431,9.940968167
17.69587392,-0.705782318,9.601184235,2.380948792,9.917145987
17.70587592,-0.689615936,9.539362793,2.48647934,9.882185595
17.71587892,-0.718954926,9.514215088,2.506687317,9.865123731
17.72588092,-0.733325043,9.492061157,2.514920197,9.846919022
17.73588392,-0.71027298,9.459728394,2.579436035,9.830790367
17.74588592,-0.592917023,9.505233765,2.599494324,9.872101613
17.75588892,-0.497415619,9.560917969,2.641856232,9.931665472
17.76589092,-0.567769318,9.555529175,2.629282379,9.926914205
17.77589392,-0.650247803,9.519753571,2.601889343,9.890316396
17.78589592,-0.685125275,9.468110962,2.559377747,9.831832804
17.79589792,-0.699196014,9.428892517,2.447410583,9.766407104
17.80590092,-0.745749207,9.446705475,2.342329102,9.761295602
17.81590292,-0.750688934,9.439819794,2.276615753,9.739440995
17.82590592,-0.747096405,9.454638977,2.242337036,9.74558498
17.83590792,-0.735121307,9.510323181,2.197879486,9.788632416
17.84591092,-0.74769516,9.505982208,2.199526062,9.785737616
17.85591292,-0.778980103,9.464069366,2.260299683,9.761371503
17.86591492,-0.75817337,9.457483063,2.359393616,9.776786332
17.87591792,-0.712368622,9.474846954,2.353705444,9.788775367
17.88591992,-0.734372864,9.490264893,2.347268829,9.803779995
17.89592292,-0.734223175,9.488917694,2.365830231,9.806925887
17.90592492,-0.679287415,9.494306488,2.346819763,9.803614134
17.91592792,-0.695902863,9.522747345,2.352957001,9.833788916
17.92592992,-0.720302124,9.524244232,2.372416534,9.841667722
17.93593292,-0.695603485,9.510772247,2.44202179,9.843887615
17.94593492,-0.738414459,9.48472641,2.534230042,9.845182217
17.95593692,-0.786614227,9.505233765,2.613415375,9.889295768
17.96593992,-0.744701385,9.548793182,2.620001678,9.929674727
17.97594192,-0.645457764,9.590855713,2.615960083,9.962147167
17.98594492,-0.603993988,9.647138672,2.644999695,10.02138297
17.99594692,-0.616717529,9.681567078,2.623893585,10.0497711
18.00594992,-0.628992004,9.668244781,2.582878876,10.02705597
18.01595192,-0.701740723,9.620643768,2.522554321,9.970582072
18.02595392,-0.729882202,9.589658203,2.530637512,9.944767403
18.03595692,-0.67165329,9.624086609,2.530637512,9.973880259
18.04595892,-0.584085388,9.663005676,2.561623077,10.0138278
18.05596192,-0.572709045,9.700278168,2.629731445,10.0667214
18.0659645,-0.597407684,9.686955872,2.668351135,10.06549094
18.0759675,-0.609083405,9.619446259,2.676284637,10.00336085
18.0859695,-0.726439362,9.571396179,2.689756622,9.968657365
18.0959725,-0.795595551,9.568402405,2.76729538,9.992258032
18.1059745,-0.770148468,9.525292053,2.793640594,9.956341955
18.1159765,-0.741408234,9.522447968,2.792892151,9.951228468
18.1259795,-0.715811462,9.535919952,2.793490906,9.962416716
18.1359815,-0.70668045,9.523196411,2.715203705,9.927889922
18.1459845,-0.681981812,9.503587189,2.582729187,9.871867032
18.1559865,-0.709374847,9.47769104,2.477498016,9.821804139
18.1659895,-0.750239868,9.420060883,2.448458405,9.761934002
18.1759915,-0.750090179,9.399703217,2.533331909,9.763955469
18.1859935,-0.773142242,9.353599091,2.639610901,9.749621048
18.1959965,-0.816252594,9.332193604,2.650987244,9.73569921
18.2059985,-0.754131775,9.334738312,2.621348877,9.725097635
18.2160015,-0.664767609,9.376052399,2.604883118,9.753855167
18.2260035,-0.681682434,9.402547302,2.62449234,9.785731795
18.2360065,-0.692460022,9.384884033,2.671644287,9.782291776
18.2460085,-0.683927765,9.339827728,2.70173172,9.74676836
18.2560105,-0.706081696,9.35015625,2.707120514,9.759737432
18.2660135,-0.726439362,9.35838913,2.661615143,9.756605784
18.2760155,-0.701740723,9.346114655,2.614313507,9.73020731
18.2860185,-0.60025177,9.358688507,2.67134491,9.750971048
18.2960205,-0.582588501,9.416168976,2.759212189,9.829389576
18.3060235,-0.61432251,9.480535126,2.666554871,9.867545454
18.3160255,-0.577648773,9.49640213,2.508782959,9.839172905
18.3260285,-0.504600677,9.520052948,2.39636673,9.829984918
18.3360305,-0.587528229,9.585167542,2.330354004,9.881860958
18.3460325,-0.672551422,9.579329681,2.317181396,9.878522773
18.3560355,-0.631686401,9.541757813,2.357447662,9.848945595
18.3660375,-0.649798737,9.518256683,2.407443695,9.83947325
18.3760405,-0.670306091,9.523495789,2.430495758,9.851578144
18.3860425,-0.657432861,9.511221313,2.513722687,9.859733799
18.3960455,-0.642763367,9.495054932,2.634371796,9.874671015
18.4060475,-0.632434845,9.496551819,2.638712769,9.87660242
18.4160495,-0.648152161,9.452543335,2.631228333,9.833312731
18.4260525,-0.61192749,9.434431,2.622995453,9.811373435
18.4360545,-0.586031342,9.415270844,2.581082611,9.780222147
18.4460575,-0.542771301,9.390871582,2.52854187,9.74046168
18.4560595,-0.514031067,9.359886017,2.453398132,9.689729438
18.4660625,-0.525257721,9.321715393,2.390229492,9.637607098
18.4760645,-0.605341187,9.255702667,2.388732605,9.578126814
18.4860665,-0.711919556,9.157806244,2.426005096,9.500407643
18.4960695,-0.788260803,9.118737488,2.481689301,9.483222567
18.5060715,-0.824784851,9.078471222,2.490520935,9.449952609
18.5160745,-0.799487457,9.08221344,2.423161011,9.433848125
18.5260765,-0.767903137,9.101972351,2.401156769,9.444634971
18.5360795,-0.740959167,9.1079599,2.400408325,9.448064043
18.5460815,-0.734672241,9.101373596,2.329006805,9.423323052
18.5560835,-0.769100647,9.07757309,2.214644623,9.37541998
18.5660865,-0.831670532,9.028924255,2.08740921,9.30432299
18.5760885,-0.842148743,8.950936432,2.065554657,9.224694767
18.5860915,-0.879271545,8.901838531,2.119292908,9.192782502
18.5960935,-0.920735321,8.877738647,2.166594543,9.184559268
18.6060965,-0.895288239,8.857081604,2.145338745,9.157069067
18.6160985,-0.848435669,8.857830048,2.062560883,9.134284517
18.6261005,-0.806073761,8.878487091,1.932331696,9.122016976
18.6361035,-0.785716095,8.869356079,1.810784454,9.086350608
18.6461055,-0.774339752,8.844956818,1.654210052,9.031570963
18.6561085,-0.767005005,8.808283081,1.555714874,8.97743818
18.6661105,-0.777034149,8.715027008,1.591191101,8.893107834
18.6761135,-0.852028198,8.614286499,1.715432739,8.824658261
18.6861155,-0.945134583,8.523126068,1.926493835,8.789103245
18.6961175,-0.862207031,8.474477234,2.183958435,8.79373867
18.7061205,-0.840202789,8.375383301,2.249971161,8.71294189
18.7161225,-0.787063293,8.29245575,2.439926147,8.6797195
18.7261255,-0.674048309,8.242459717,2.545007629,8.652719061
18.7361275,-0.655037842,8.116122437,2.631976776,8.557325501
18.7461305,-0.637823639,7.975115662,2.65143631,8.428487605
18.7561325,-0.610580292,7.867938538,2.66430954,8.329214276
18.7661345,-0.652044067,7.701035614,2.597997437,8.153569873
18.7761375,-0.696950684,7.540269928,2.605182495,8.008020147
18.7861395,-0.668958893,7.383845215,2.719844055,7.897229124
18.7961425,-0.596359863,7.270081787,2.826272736,7.822886414
18.8061445,-0.539478149,7.10123291,2.810256042,7.656114193
18.8161475,-0.51837204,6.95259201,2.677781525,7.468450919
18.8261495,-0.385448456,6.822063446,2.520758057,7.283085977
18.8361515,-0.299227753,6.706354065,2.480791168,7.156748348
18.8461545,-0.321381683,6.563401337,2.419269104,7.002455733
18.8561565,-0.408201141,6.337521057,2.292632446,6.751811968
18.8661595,-0.681832123,6.100563812,2.103425903,6.488927061
18.8761615,-1.141675873,5.957461395,2.097288666,6.41820768
18.8861645,-1.466201019,5.844895477,2.375110931,6.47716763
18.8961665,-1.480421448,5.796546021,2.850522308,6.626995613
18.9061685,-1.235231323,5.729635162,3.348237305,6.750200631
18.9161715,-0.960103455,5.670059052,3.759282532,6.870485677
18.9261735,-0.75937088,5.58009613,4.013453979,6.91534018
18.9361765,-0.570912781,5.419031067,4.088897095,6.812555949
18.9461785,-0.477507019,5.233417053,4.178111572,6.713663926
18.9561815,-0.546214142,4.96697113,4.441563721,6.685554606
18.9661835,-0.71371582,4.709656219,4.650379486,6.657047494
18.9761865,-0.735570374,4.650978241,4.889132996,6.787951371
18.9861885,-0.567170563,4.723876648,5.397026825,7.194761399
18.9961905,-0.225580902,4.91323288,6.025120697,7.777713256
19.0061935,0.255368958,5.039719849,6.428831177,8.172751052
19.0161955,0.699645081,5.091212769,6.643634491,8.399275561
19.0261985,1.012344818,5.110223236,6.815477142,8.578458616
19.0362005,1.303190002,5.178930359,7.064409485,8.855817592
19.0462025,1.465602264,5.1916539,7.230863342,9.021454699
19.0562055,1.53041748,5.119803314,7.415130157,9.139951799
19.066207,1.607058105,5.042414246,7.782765656,9.411695832
19.07621,1.726958771,4.957840118,8.108039246,9.659340849
19.086212,1.910477142,4.807402954,8.111332397,9.620538412
19.096215,2.278412018,4.608017578,7.91568924,9.438385638
19.106217,2.601290588,4.42180481,7.81614624,9.349396373
19.11622,2.835553436,4.17721344,7.853119354,9.336003374
19.126222,3.020568695,4.099075928,8.417445831,9.837665019
19.136224,3.033441925,4.449646912,9.756261749,11.14386696
19.146227,3.090623016,4.55397995,10.38794815,11.75585602
19.156229,3.332070923,4.487069092,10.32642609,11.74187214
19.166232,3.600462799,4.444707184,10.25532394,11.74267531
19.176234,3.713178406,4.498146057,10.19005966,11.7413086
19.186236,3.72440506,4.527485046,9.931547241,11.53277696
19.196239,3.443289642,4.409979401,9.715396729,11.21129321
19.206241,3.115770721,4.282594299,9.743987274,11.09026281
19.216244,2.851121063,4.156855774,9.953701172,11.15726258
19.226246,2.625540161,3.933220825,10.32373169,11.35531255
19.236249,2.388582916,3.679797821,10.8518335,11.70506431
19.246251,2.303410034,3.495830383,11.5326178,12.26897718
19.256253,2.387385406,3.375181274,12.10577591,12.79223468
19.266256,2.481389923,3.249891815,12.34527786,13.00480597
19.276258,2.55084549,3.116668854,12.38734039,13.02561474
19.286261,2.678679657,3.069217529,12.31968109,12.97574519
19.296263,2.741099854,3.117716675,12.06655746,12.7607051
19.306266,2.647095337,3.157384186,11.69353317,12.39818159
19.316268,2.591261444,3.190465393,11.4636113,12.17818087
19.326271,2.637515259,3.242856445,11.39969421,12.14189577
19.336273,2.731519775,3.28911026,11.34670441,12.12547514
19.346275,2.735112305,3.199895782,11.39505386,12.14773332
19.356278,2.798280945,3.03523819,11.42858414,12.15136134
19.36628,2.85381546,2.888243866,11.27126129,11.98029826
19.376283,2.834804993,2.756966858,11.01738922,11.70554787
19.386285,2.762954407,2.62449234,10.81246536,11.4643484
19.396288,2.685415649,2.489772491,10.75992462,11.36601963
19.40629,2.607427826,2.380649414,10.83821182,11.39881604
19.416292,2.545307007,2.288141785,10.92982132,11.45317313
19.426295,2.492017822,2.202968903,10.9380542,11.43259614
19.436297,2.422412567,2.088756409,10.80198715,11.2656075
19.4463,2.561024323,1.982477417,10.69466034,11.17429291
19.456302,2.79304184,1.942660217,10.73447754,11.26072908
19.466305,2.991828461,1.966161346,10.81156723,11.38888994
19.476307,3.044219513,1.999541931,10.74420731,11.34475346
19.486309,3.067121887,1.971250763,10.60484711,11.21409151
19.496312,3.084785156,1.946552124,10.52191956,11.13623616
19.506314,3.11711792,1.882036285,10.47371979,11.08861086
19.516317,3.105142822,1.854044495,10.47327072,11.08010797
19.526319,3.024011536,1.80075531,10.53494247,11.10731193
19.536322,3.023861847,1.698218536,10.59212357,11.14543711
19.546324,2.98015274,1.576970673,10.48030609,11.00931254
19.556326,2.924917603,1.403631134,10.30157776,10.80036239
19.566329,2.826123047,1.248852997,10.11880783,10.58002255
19.576331,2.760409698,1.174906769,9.937684479,10.3806474
19.586334,2.647245026,1.095122681,9.777667236,10.1887181
19.596336,2.50863327,1.031654663,9.803862762,10.17218154
19.606339,2.491419067,0.966989136,9.946965179,10.29972588
19.616341,2.534529419,0.89513855,10.0767453,10.42908952
19.626344,2.576891327,0.819994812,10.09635452,10.4522311
19.636346,2.584076385,0.772992554,10.03438339,10.39056391
19.646348,2.56835907,0.739611969,9.866582336,10.22217889
19.656351,2.567910004,0.742755432,9.629026337,9.993197467
19.666353,2.57419693,0.790206757,9.440867615,9.817377342
19.676356,2.571053467,0.837508392,9.307944031,9.692758035
19.686358,2.501747589,0.859812012,9.266929321,9.637115582
19.696361,2.484683075,0.835263062,9.214538269,9.580137258
19.706363,2.452649689,0.768202515,9.270671539,9.620341802
19.716365,2.450554047,0.713266754,9.423054657,9.762577716
19.726368,2.454595642,0.626297607,9.53382431,9.864638586
19.73637,2.502645721,0.547261963,9.592053223,9.928253436
19.746373,2.457888794,0.502355347,9.479636993,9.805972453
19.756375,2.383643188,0.468825073,9.330846405,9.641900561
19.766378,2.311493225,0.477806396,9.173822937,9.472609311
19.77638,2.166594543,0.517922974,8.969647522,9.242129235
19.786382,2.033371582,0.490979004,8.831035767,9.075398233
19.796385,1.918560333,0.449515228,8.787775726,9.005994665
19.806387,1.868115234,0.395178223,8.723559265,8.930089955
19.81639,1.827399902,0.364192657,8.602610779,8.802098551
19.826392,1.738035736,0.364342346,8.349038086,8.535804035
19.836395,1.639390869,0.380508728,8.06073761,8.234554033
19.846397,1.567390594,0.444126434,7.853867798,8.021047372
19.8564,1.514550476,0.512683868,7.731422424,7.895036453
19.866402,1.424886932,0.56986496,7.654931488,7.807241826
19.876404,1.386716309,0.553249512,7.601492615,7.746725574
19.886407,1.405876465,0.529598694,7.646848297,7.793025875
19.896409,1.406624908,0.485141144,7.668403473,7.811425439
19.906412,1.384321289,0.419727173,7.679031372,7.814092343
19.916414,1.356479187,0.444126434,7.763455811,7.893575248
19.926417,1.391805725,0.536933441,7.846383362,7.986936369
19.936419,1.392554169,0.613274689,7.891140289,8.036504714
19.946421,1.306483154,0.666713562,7.995473328,8.128898999
19.956424,1.221759338,0.699046326,8.29006073,8.408713847
19.966426,1.086590424,0.678538971,8.83178421,8.924208997
19.976429,0.89513855,0.60608963,9.58067688,9.64147225
19.986431,0.920286255,0.524658966,10.43045975,10.48411581
19.996434,0.997974701,0.460891571,11.35044662,11.40355265
20.006436,0.92792038,0.385598145,12.24812988,12.2892802
20.016438,0.727487183,0.276026001,13.07037003,13.09350986
20.026441,0.653990021,0.165256348,13.83093842,13.84737773
20.036443,0.74649765,0.126486969,14.51785995,14.53758974
20.046446,0.880319366,0.20477417,15.0812883,15.10834708
