Time (s),Acceleration x (m/s^2),Acceleration y (m/s^2),Acceleration z (m/s^2),Absolute acceleration (m/s^2)
0.013873958,3.169059906,2.753823395,8.340655518,9.337720195
0.023820958,2.814597015,2.548600159,8.608897705,9.409061527
0.033767958,2.826422424,2.677482147,8.982670441,9.790094107
0.043715958,2.768043823,2.756218414,9.098080444,9.901205701
0.053662958,2.567610626,2.63856308,9.227411499,9.934775409
0.063609958,2.274969177,2.552941132,9.245523834,9.857621627
0.073557958,2.031126251,2.62568985,9.053024139,9.642456487
0.083504958,2.190993805,2.802921295,8.820258179,9.510719004
0.093451958,2.343077545,2.86908371,8.880133667,9.621768427
0.103399958,2.431992645,2.744243317,8.895252228,9.621380972
0.113346958,2.566113739,2.59171051,8.959468689,9.673364579
0.123294958,2.718197479,2.612217865,9.025631104,9.781323864
0.133241958,2.819536743,2.655926971,8.998238068,9.796531215
0.143188958,2.803819427,2.64559845,8.882977753,9.683382069
0.153136958,2.81055542,2.603086853,8.799900513,9.597579485
0.163083958,2.84453476,2.574047241,8.814120941,9.612794867
0.173030959,2.842588806,2.557132416,8.83537674,9.62720725
0.182978958,2.884501648,2.534828796,8.914113007,9.706035106
0.192925958,2.929557953,2.525548096,9.002279663,9.798047873
0.202872958,2.899769897,2.508333893,9.1079599,9.88207154
0.212820958,2.706970825,2.430196381,9.284143524,9.971402433
0.222767958,2.393522644,2.378553772,9.390123138,9.978019906
0.232715958,2.303260345,2.45489502,9.423803101,10.0069767
0.242662958,2.392474823,2.553689575,9.447753296,10.0749843
0.252609958,2.581980743,2.584076385,9.285041656,9.977779006
0.262557958,2.787054291,2.531385956,9.053473206,9.805149849
0.272504958,2.971919861,2.535726929,8.801098022,9.629202725
0.282451958,3.218307495,2.575693817,8.510402527,9.456143661
0.292399958,3.477867737,2.635419617,8.291407928,9.369548868
0.302346958,3.749552765,2.743494873,8.230634308,9.4514153
0.312293958,3.977528687,2.856509857,8.344697113,9.675451045
0.322241958,4.22750885,2.981949005,8.419242096,9.881674373
0.332188958,4.398453369,3.029849396,8.524323578,10.05934749
0.342136958,4.351301422,2.844834137,8.593030701,10.04326052
0.352083833,4.265230408,2.492915955,8.611143036,9.927668647
0.362030833,4.151766357,2.11899353,8.826994171,9.98214023
0.371978833,4.107458496,1.89086792,9.132957916,10.19105083
0.381925833,4.247866516,1.779050446,9.370364227,10.44093464
0.391872833,4.430337067,1.749711456,9.488318939,10.61685325
0.401820833,4.59963501,1.813478851,9.561666412,10.76433056
0.411767833,4.775818634,1.873653717,9.573940887,10.86183069
0.421714833,4.900958405,1.943258972,9.586365051,10.9404773
0.431662833,5.031187592,1.94355835,9.613309021,11.02297501
0.441609833,4.80904953,2.077829132,9.388177185,10.75091634
0.451557833,4.696333923,2.212698669,9.087302856,10.4656897
0.461504833,4.506229248,2.124232635,8.634644165,9.968728414
0.471451833,4.201463013,2.055974579,8.434959412,9.645095292
0.481399833,3.927832031,2.133213959,8.387807465,9.504408468
0.491346833,3.394790497,2.296224976,8.367449799,9.317267185
0.501293833,2.754871216,2.376009064,8.372539215,9.12875388
0.511241833,2.230361938,2.448458405,8.490793304,9.113892356
0.521188833,1.630110168,2.354902954,8.748407593,9.205295351
0.531135833,0.870290222,2.128124542,8.946146393,9.236874711
0.541083833,0.293539581,1.884281616,9.011410675,9.210982849
0.551030834,0.010029144,1.70719986,8.452472992,8.623162507
0.560978833,-0.166603546,1.796264648,7.19014801,7.412998842
0.570925833,-0.323776703,1.768272858,6.662345581,6.900613661
0.580872833,-0.74305481,1.430874481,7.453300781,7.625695035
0.590820833,-1.363963623,1.123862915,8.583450623,8.763508955
0.600767833,-2.015708313,1.052760773,9.67782486,9.941412337
0.610714833,-2.262545013,1.050814819,10.00654129,10.3128168
0.620662833,-2.164798279,0.89513855,9.960137787,10.23190937
0.630609833,-1.864373016,0.777183838,9.843530273,10.04863124
0.640556833,-1.246008911,0.862207031,9.532327423,9.652005246
0.650504833,-1.492097168,1.862876129,6.79931076,7.206059134
0.660451833,-7.715854797,8.713081055,0.199834442,11.6401087
0.670399833,-8.600964203,7.896229706,15.13787064,19.11758761
0.680346833,-3.904031525,1.442550201,15.83347412,16.37135657
0.690293833,-2.615960083,2.299817505,19.50683533,19.81537363
0.700241833,-0.499361572,1.444346466,14.53013443,14.61028081
0.710188833,2.206711121,1.36082016,13.79905472,14.04048847
0.720135833,1.725312195,0.613873444,13.27828766,13.40397202
0.730083833,0.042661285,-0.671802979,11.53456375,11.55418972
0.740030833,-1.357976074,-0.842597809,11.53905441,11.64919941
0.749977833,-2.361339569,-0.492924957,11.20240448,11.45917823
0.759925833,-1.610650635,0.454904022,10.05803421,10.19633195
0.769872834,-0.514031067,1.589095459,9.650581512,9.79403777
0.779820833,1.204844513,3.101400604,9.073232117,9.664050758
0.789767833,2.386636963,4.098626862,8.617429962,9.83640571
0.799714833,2.298170929,4.262685699,9.281299438,10.46874387
0.809662833,2.370470581,4.085154877,9.398356018,10.51839897
0.819609833,2.864293671,4.031416626,9.478289795,10.69085945
0.829556833,3.208577728,3.891906738,9.68710556,10.9216264
0.839504833,3.053799591,3.202290802,11.83663559,12.63670449
0.849451833,3.1054422,3.106490021,10.54317535,11.42158474
0.859398833,2.292931824,2.844684448,8.835526428,9.56118681
0.869346833,1.447040863,2.567610626,8.62236969,9.112179249
0.879293833,0.939895477,2.41388031,8.441845093,8.830343721
0.889241833,0.386645966,2.391427002,7.110064545,7.511420374
0.899188833,0.049397278,2.233954468,6.10430603,6.500426506
0.909135833,0.267793121,2.079625397,6.132297821,6.480866571
0.919083833,1.035845947,2.255359955,6.287525024,6.759629893
0.929030833,2.839295654,2.807561646,8.646170197,9.523668478
0.938977833,1.617386627,3.14870224,8.19994812,8.931372485
0.948925833,-0.112116852,3.075654144,5.635480957,6.421126398
0.958872833,1.282982025,3.108585663,6.598278809,7.405851128
0.968820833,0.701890411,2.833457794,8.030201111,8.544311739
0.978767833,1.509910126,2.837649078,8.461304626,9.051284818
0.988714834,3.607498169,3.38386322,10.85752167,11.93106659
0.998662833,4.944068756,4.17257309,13.24296112,14.73873133
1.008609833,5.872887268,4.944068756,13.96341293,15.93460139
1.018556834,4.870721283,5.80358139,14.62099548,16.46751322
1.028504833,2.561174011,6.379882965,15.69276672,17.13258435
1.038451833,0.602347412,7.122638397,15.79425568,17.33647347
1.048398833,0.210761719,8.45621521,14.29856598,16.61327738
1.058346833,1.079854431,10.17000137,12.28136078,15.98207859
1.068293833,1.814376984,12.27657074,10.34274216,16.15482802
1.078241833,2.292482758,14.63162338,8.65979187,17.15610315
1.088188833,2.573448486,16.60332321,7.628885651,18.45244903
1.098135833,3.508254547,17.69111115,7.887697449,19.68499516
1.108083833,5.126539307,17.41807892,9.059909821,20.29169398
1.118030833,6.140979767,16.08270584,9.176367645,19.50822347
1.127977833,5.813161469,14.61785202,7.725883942,17.52608703
1.137925833,5.101241913,13.2020961,5.126988373,15.05337239
1.147872833,4.677473145,11.80220718,2.369722137,12.91458216
1.157819833,4.596790924,10.5425766,-0.141156464,11.50201431
1.167767833,4.682562561,9.367520142,-2.386038208,10.74104297
1.177714833,4.395160217,8.07241333,-4.046684875,10.04275604
1.187662833,4.064946899,6.753056946,-5.557642822,9.644426637
1.197609833,3.757037201,5.704038391,-7.180118866,9.909868285
1.207556834,3.301534424,5.086422729,-7.91329422,9.969556216
1.217504833,2.802172852,4.990621948,-7.084617462,9.107704689
1.227451833,2.490670624,4.992867279,-5.06995697,7.539007063
1.237398834,2.405048676,4.64409256,-2.79304184,5.928991276
1.247346833,1.842518463,3.891607361,-1.08000412,4.439131789
1.257293833,1.038091278,2.79528717,-0.494571533,3.022559324
1.267240833,0.126486969,1.86512146,-0.333057404,1.898842871
1.277188833,-0.760119324,1.40991806,-0.490529938,1.675192509
1.287135833,-1.589544525,0.947529602,-0.758472748,1.999936262
1.297083833,-2.245480499,0.364641724,-0.826281738,2.420307371
1.307030833,-2.125579834,-0.127684479,-0.523461456,2.192807528
1.316977833,-1.459165649,-0.247884521,-0.079634399,1.482212119
1.326925833,-0.578696594,-0.144299927,0.66461792,0.892988912
1.336872833,0.320184174,-0.113014984,1.502725067,1.540607971
1.346819833,1.075962524,-0.349972229,1.953737183,2.257712314
1.356767583,1.622176666,-0.785865784,2.22437439,2.863020012
1.366714583,1.981279907,-1.147364044,2.476450195,3.372642864
1.376661583,2.155966644,-1.452878723,2.586321716,3.667166314
1.386609583,1.967508545,-1.907782745,2.048490143,3.421554726
1.396556583,0.993334351,-2.102827148,0.863703918,2.48084252
1.406504583,-0.479602661,-1.704355774,-0.381556549,1.811196488
1.416451583,-1.403032379,-0.875379639,-1.038690033,1.952861069
1.426398583,-1.402733002,0.373473358,-0.909808044,1.713152912
1.436346583,-1.475631409,2.20207077,-0.47032196,2.692175046
1.446293583,-2.24772583,4.725523224,-0.036823425,5.23299122
1.456240583,-3.57576416,8.113577728,-0.349223785,8.873454239
1.466188583,-5.664819946,11.44849274,-0.916244659,12.80615771
1.476135583,-7.460934906,15.25372971,-0.111967163,16.98099986
1.486082583,-6.18394043,20.74101883,3.342549133,21.89985425
1.496030584,-3.346590729,25.47552338,8.395291901,27.03114661
1.505977583,0.648301849,28.83663391,14.13809967,32.12254057
1.515925583,6.278992767,31.58222443,19.66370911,37.72961841
1.525872584,10.21580612,33.31038071,21.73779602,41.06672538
1.535819583,11.72406967,32.87373871,19.51596634,39.98761619
1.545767583,11.31826355,31.57009964,15.45326477,36.92665261
1.555714583,10.78162949,29.26594116,11.55013138,33.25874894
1.565661583,9.261390839,26.18474854,8.035589905,28.91340729
1.575609583,7.341632996,22.93440765,5.306764526,24.65863701
1.585556583,4.825814667,19.93644196,3.248544617,20.76784166
1.595503583,2.835703125,17.2378537,1.88263504,17.57068943
1.605451583,1.476379852,14.37835007,1.056802368,14.49253185
1.615398583,0.069754944,11.52663025,0.720451813,11.54933424
1.625346583,-1.28477829,9.117090912,1.00036972,9.261357434
1.635293583,-1.839973755,7.160210266,1.545236664,7.552606889
1.645240583,-1.743125153,5.483546906,1.856439514,6.046001954
1.655188583,-1.337917786,4.167184296,1.994751892,4.809832021
1.665135583,-0.674647064,3.060535583,2.336341553,3.909030387
1.675082583,0.116158447,2.018103333,2.368973694,3.114204587
1.685030583,0.659079437,1.139280853,1.85688858,2.276045203
1.694977583,1.162482605,0.306412811,1.08584198,1.619971427
1.704924583,2.067949677,-0.443827057,0.266894989,2.131814076
1.714872583,2.661016388,-1.018781433,-0.743803253,2.944854344
1.724819583,2.523751831,-1.567390594,-1.754950562,3.450490987
1.734767583,2.368824005,-2.243684235,-2.508184204,4.11538991
1.744714584,2.623743896,-2.862946472,-2.758613434,4.763448605
1.754661583,2.967878265,-3.42712326,-2.736309814,5.295362749
1.764609583,3.067570953,-4.035009155,-2.421364746,5.617321218
1.774556583,2.98838562,-4.763693848,-1.392703857,5.793345469
1.784503583,2.651286621,-5.594466248,-0.443527679,6.206777759
1.794451583,1.942660217,-6.006708984,-0.326171722,6.321461029
1.804398583,0.904119873,-5.7848703,-1.010398865,5.941638074
1.814346583,0.170046387,-5.2115625,-2.212099915,5.664157969
1.824293583,-0.284558258,-4.26493103,-3.74072113,5.680106044
1.834240583,-0.504900055,-2.83749939,-5.144801331,5.897059232
1.844188583,-0.746647339,-1.202599182,-5.630840607,5.806039354
1.854135583,-1.66034729,0.798739014,-4.946912842,5.278890395
1.864082583,-2.928360443,3.165617065,-4.105512543,5.95412962
1.874030583,-3.829037476,6.891968079,-2.698887634,8.333351454
1.883977583,-3.051853638,12.01805832,-0.109123077,12.39997759
1.893924583,-1.509910126,17.70218811,3.537443848,18.11520912
1.903872583,0.079784088,23.21971436,8.372838593,24.68331271
1.913819583,2.343227234,26.80460953,15.11900986,30.86360745
1.923767583,3.991599426,28.33487732,20.98785553,35.4864512
1.933714583,3.204685822,28.90818512,23.09053299,37.13658428
1.943661583,0.962348785,29.13107162,22.14914063,36.60778441
1.953609583,-0.457748108,28.54459122,21.49320465,35.73459203
1.963556584,-0.504001923,26.79622696,21.65756287,34.45782678
1.973503583,0.189655609,24.11021255,21.33737869,32.19661548
1.983451583,0.597257996,21.10850464,19.61431183,28.82094575
1.993398583,0.181871796,17.72344391,16.47324371,24.19754739
2.003345583,-0.776734772,14.7269751,12.82038986,19.54097
2.013293583,-2.145638123,12.32042953,9.340276794,15.60889226
2.023240583,-2.639910278,10.61218185,6.195915527,12.56888616
2.033188583,-2.116448822,9.384285278,3.958667908,10.40265434
2.043135583,-1.502575378,8.216713257,2.484683075,8.714686426
2.053082583,-1.146316223,6.727460175,1.2461586,6.937266936
2.063030583,-0.785267029,4.995861053,0.125588837,5.058759189
2.072977583,-0.39083725,3.464844818,-0.176932068,3.491304674
2.082924583,0.227826233,2.055525513,0.91384964,2.261019923
2.092872583,1.049317932,0.585582275,2.579136658,2.84533313
2.102819583,1.375938721,-0.817749481,3.827091522,4.148319069
2.112766583,1.080602875,-1.850152588,4.18185379,4.698794345
2.122714583,0.432450714,-2.446213074,3.427572327,4.233110449
2.132661583,-0.529449005,-2.87372406,1.841320953,3.453848444
2.142609583,-1.210083618,-3.333717499,0.213755493,3.552979895
2.152556583,-1.310075684,-3.667822723,-0.84125061,3.984585853
2.162503583,-0.761316833,-3.440595245,-1.086141357,3.687411289
2.172451583,0.18022522,-2.628384247,-0.821641388,2.759706406
2.182398584,0.706830139,-1.849404144,-0.770148468,2.124390077
2.192345583,0.559985504,-1.56903717,-0.928668823,1.907324616
2.202293583,0.143551483,-1.417701874,-0.993633728,1.737179788
2.212240583,-0.122295685,-1.243314514,-1.0975177,1.662928837
2.222188583,0.16615448,-1.047521667,-1.278042297,1.660813376
2.232135583,0.850830688,-0.963396606,-1.341959381,1.858198284
2.242082583,1.335223389,-0.664168854,-1.17011673,1.895551351
2.252030583,1.397643585,0.146994324,-0.729882202,1.583585473
2.261977583,1.474134521,1.294657745,-0.361947327,1.995048153
2.271924583,1.300345917,2.776276703,-0.367036743,3.087608752
2.281872583,0.479003906,4.142335968,-0.969084778,4.281064975
2.291819583,-1.065035248,4.734654236,-2.101779327,5.28854679
2.301766583,-3.073408813,5.0828302,-3.251837769,6.771665486
2.311714583,-4.483027496,6.29276413,-2.631827087,8.162287041
2.321661583,-4.405638428,8.359366608,0.921034698,9.494048923
2.331609583,-3.481160889,11.3202095,6.179150391,13.3584252
2.341556583,-1.881287842,15.08383301,12.04200851,19.39255608
2.351504083,0.454454956,19.25835205,17.24923004,25.85781487
2.361452083,2.371668091,23.24845459,19.93210098,30.71488401
2.371399083,2.875670013,27.21161316,19.02289169,33.32584248
2.381346083,3.060385895,30.97059631,17.9862973,35.9451066
2.391294083,4.665498047,33.10171463,20.40661423,39.16529443
2.401241083,7.684869232,33.22445938,24.0976387,41.75665345
2.411188083,11.02816681,32.63708084,27.30861145,43.96088908
2.421136083,12.7654541,30.71373047,26.71060501,42.65848659
2.431083083,12.25666214,28.02711731,21.2510083,37.24715325
2.441031083,8.817863159,25.29649567,12.98669403,29.77115425
2.450978083,4.066593475,22.24060043,5.510640564,23.27119785
2.460925083,0.947230225,19.31104248,1.913021851,19.42867107
2.470873083,-1.172661438,16.37998764,1.649270325,16.50452128
2.480820083,-2.624791718,13.1410231,1.993704071,13.54809491
2.490767083,-2.918031921,10.04246658,2.103725281,10.66731951
2.500715083,-2.455793152,7.704029388,2.454146576,8.450196698
2.510662084,-1.669777679,5.60584259,3.018023987,6.581952403
2.520610083,-1.217717743,3.165167999,3.144361267,4.624730559
2.530557083,-1.050814819,0.971030731,3.034639435,3.355018475
2.540504084,-1.128802643,-0.378562775,2.833158417,3.07315665
2.550452083,-0.997675323,-1.142124939,2.504591675,2.927931844
2.560399083,-0.334254913,-1.709594879,2.122436371,2.745756207
2.570346083,0.580492859,-2.084565125,1.788480835,2.807320326
2.580294083,1.515149231,-2.226470032,1.273252258,2.978928886
2.590241083,2.519111481,-1.789229279,0.874331818,3.211186726
2.600188083,2.487826538,-1.178648987,0.011526031,2.752930651
2.610136083,0.936752014,-0.710871735,-1.510508881,1.914283165
2.620083083,-0.923579407,-0.686622162,-2.998863831,3.212107282
2.630031083,-2.062261505,-1.355431366,-3.816763,4.545084873
2.639978083,-2.403551788,-2.117197266,-4.007017365,5.129890215
2.649925083,-2.413730621,-2.386786652,-3.324885864,4.751600998
2.659873083,-2.306553497,-2.212399292,-2.394420776,3.993513555
2.669820083,-1.718276825,-1.918410645,-1.488504639,2.974629508
2.679767083,-0.906514893,-1.511107635,-0.185614014,1.771910861
2.689715083,-0.361797638,-1.160836029,1.142723694,1.668608779
2.699662083,0.055833893,-0.646804962,1.855092316,1.965411301
2.709610083,0.573158112,-0.272134094,2.272574158,2.359483098
2.719557083,1.206640778,-0.242645416,2.759960632,3.02195987
2.729504083,1.758543091,0.011825409,3.067570953,3.535902317
2.739452083,1.84177002,0.55115387,3.089575195,3.638868269
2.749399083,1.510957947,1.027762756,3.160228271,3.650525021
2.759346084,1.202000427,1.311422882,3.62141922,4.034762963
2.769294083,0.9595047,1.351988525,4.915328522,5.187386309
2.779241083,1.04018692,1.065035248,6.855294342,7.015080144
2.789188083,1.305285645,0.450263672,8.46085556,8.572781626
2.799136083,1.220861206,0.035925293,9.051527252,9.133561097
2.809083083,1.487456818,0.785716095,9.068591766,9.223298444
2.819031083,2.120041351,2.2945784,9.022787018,9.548316654
2.828978083,2.363135834,3.831282806,8.40936264,9.538370874
2.838925083,2.235301666,5.650749207,7.981252899,10.03134776
2.848873083,1.607507172,7.585924988,8.394992523,11.42830857
2.858820083,0.961001587,9.306147766,9.505084076,13.33696118
2.868767083,0.947679291,10.40546173,11.41196869,15.47271014
2.878715083,2.563718719,10.71471863,13.98960846,17.80693668
2.888662083,4.697381744,10.1391655,19.38798248,22.37771072
2.898609083,4.303101654,9.509125671,28.11513428,29.99001384
2.908557083,3.749702454,7.147337036,37.75868042,38.61169049
2.918504083,3.297941895,3.837270355,42.26655624,42.56833144
2.928452083,0.86819458,3.474424896,37.0621788,37.2348021
2.938399083,-0.540675659,6.346652069,27.26385452,27.99803718
2.948346083,1.648970947,8.860674133,20.56737991,22.45546187
2.958294083,4.068240051,10.41549088,18.9829248,22.03144256
2.968241083,5.506748657,10.71486832,20.23911255,23.553224
2.978188084,6.144572296,9.383387146,21.0519223,23.85345165
2.988136083,5.310955811,7.213649139,20.07295807,21.98105164
2.998083083,3.226989441,4.398153992,18.51933884,19.3060387
3.008030083,0.359552307,1.446442108,17.47391281,17.53736302
3.017978083,-1.808239746,-0.42361908,17.16974533,17.2698969
3.027925083,-2.881507874,-1.761237488,16.45453262,16.79752032
3.037873083,-2.755919037,-2.542313232,14.5968956,15.07076002
3.047820083,-1.13613739,-1.876048737,11.74951675,11.95246882
3.057767083,1.292412415,-0.797541504,9.15121994,9.27638015
3.067715083,2.678679657,-0.191002808,7.12353653,7.612921874
3.077662083,2.246977386,0.011376343,4.981790314,5.465095747
3.087609083,0.950822754,0.099542999,2.777174835,2.937119811
3.097557083,-0.195942535,-0.099243622,1.040486298,1.063416433
3.107504083,-0.804576874,-0.515228577,-0.476608887,1.06768931
3.117452083,-1.209335175,-0.588725739,-1.832489319,2.273127067
3.127399083,-1.301992493,-0.297730865,-3.262465668,3.525267416
3.137346083,-0.903820496,-0.17663269,-4.367617493,4.463650206
3.147294083,-0.451161804,-0.048050079,-4.6581633,4.680207379
3.157241083,-0.270786896,0.139509888,-4.409380646,4.419889844
3.167188083,-0.126936035,0.312849426,-3.972588959,3.986909901
3.177136083,-0.039517822,0.517922974,-3.442990265,3.481951727
3.187083083,-0.223784637,0.484542389,-2.785407715,2.83608128
3.197030084,-0.416733398,0.36269577,-2.058668976,2.131509535
3.206978083,-0.560883636,0.210911407,-1.528022461,1.641318591
3.216925083,-0.478704529,0.362995148,-0.910257111,1.090638121
3.226873084,-0.229622498,0.576750641,0.101189575,0.62897307
3.236820083,0.327967987,0.844094696,1.348845062,1.624635916
3.246767083,0.807420959,0.922531586,1.986668701,2.33449045
3.256715083,0.723295898,0.916544037,1.368603973,1.79896825
3.266662083,0.370778961,0.855021973,0.281265106,0.973472995
3.276609083,0.372275848,0.635877686,0.087567902,0.742022827
3.286557083,0.367485809,0.509839783,1.021775208,1.199586178
3.296504083,0.191601563,0.425714722,2.446362762,2.490508974
3.306452083,-0.134420471,0.36509079,3.334016876,3.356639492
3.316399083,-0.149239655,0.675545197,3.760929108,3.824032105
3.326346083,0.684376831,1.368753662,4.727469177,4.96898612
3.336294083,2.201172638,2.219734039,5.574857025,6.391510857
3.346241083,3.010240173,3.283422089,6.753056946,8.08988162
3.356187625,2.240840149,4.364623718,8.042475586,9.420866113
3.366135625,-0.084723816,5.738317108,9.281299438,10.91228577
3.376082625,-2.421813812,8.087082825,10.65813629,13.59639511
3.386030625,-2.596201172,10.44512924,12.46413071,16.46801566
3.395977625,0.519868927,11.76029434,15.98091751,19.84853927
3.405924625,4.932842102,12.11475723,23.34395599,26.75893412
3.415872625,6.244115295,11.88109314,33.51859772,36.10603472
3.425819625,3.772904205,9.046737213,40.73793503,41.90056814
3.435766625,-2.264341278,5.647755432,40.61683685,41.07008423
3.445714625,-6.885681152,4.85006424,33.53775787,34.57914012
3.455661625,-4.799768829,6.72686142,29.89418472,31.01533049
3.465608625,0.265547791,9.418563995,33.1008165,34.41575099
3.475556625,3.682641907,10.41339523,35.98906036,37.64589111
3.485503625,3.715274048,9.991722107,34.88735138,36.47965266
3.495451625,1.974992981,8.700656891,31.0252327,32.28261284
3.505398625,-0.012424164,7.092101898,26.8329007,27.75432621
3.515345625,-1.001417542,5.919590149,23.65201538,24.4020945
3.525293625,-1.332828369,4.691094818,21.82147202,22.35977287
3.535240625,-1.9681073,3.477568359,20.11187714,20.50498793
3.545187625,-2.186802521,2.490371246,16.13509689,16.47195817
3.555135625,-0.30192215,2.419568481,11.47079636,11.72708991
3.565082625,2.584076385,2.501747589,8.056845703,8.823205452
3.575029625,3.967050476,1.425036621,4.750970306,6.351372899
3.584977625,2.155218201,0.250129852,1.466500397,2.618807715
3.594924625,-0.112266541,-1.284179535,-2.510130157,2.821785651
3.604872625,-0.827329559,-2.371368713,-5.867797852,6.382704396
3.614819625,-1.424288177,-2.826422424,-8.558602295,9.125071713
3.624766625,-2.011217651,-3.006797333,-10.89389603,11.47879773
3.634714625,-2.372865601,-2.758014679,-12.47625549,12.99592579
3.644661625,-1.448238373,-1.700314178,-12.96468979,13.15566965
3.654608625,-1.39000946,-1.26951004,-13.64637222,13.77560369
3.664556625,-1.422042847,-1.739832001,-13.80504227,13.98672275
3.674503625,-1.718576202,-1.485510864,-13.11871948,13.31394185
3.684451625,-1.891316986,-1.538201294,-11.94306427,12.18933662
3.694398625,-1.480870514,-1.71184021,-10.41294617,10.65611666
3.704345625,-1.433419189,-1.596729584,-8.680598602,8.941869381
3.714293625,-1.539398804,-1.551224213,-7.005132751,7.338114887
3.724240625,-1.445244598,-1.459015961,-5.290298767,5.674920314
3.734187625,-1.054107971,-1.150806885,-3.583398285,3.908483513
3.744135625,-0.499960327,-0.764460297,-2.560425568,2.718481003
3.754082625,-0.136366425,-0.495469666,-1.846859436,1.917022631
3.764030625,0.007783813,-0.403860168,-1.005608826,1.08370325
3.773977625,0.24803421,-0.431402893,0.340392151,0.602906495
3.783924625,0.582588501,-0.614921265,2.306403809,2.457038065
3.793872625,0.713566132,-0.808319092,4.087549896,4.227365673
3.803819625,0.878373413,-0.847836914,5.579347687,5.711347292
3.813766625,0.938099213,-0.665965118,7.033124542,7.126596698
3.823714625,1.215023346,-0.365689545,8.067323914,8.166500211
3.833661625,2.223625946,0.357756042,8.608897705,8.898630312
3.843609625,3.271896057,1.273851013,9.094936981,9.749147599
3.853556625,3.305725708,1.676513672,9.787696381,10.46601744
3.863503625,2.942880249,2.166744232,10.80258591,11.40399873
3.873451625,2.036664734,3.309318237,12.17253708,12.77772473
3.883398625,0.375419312,4.488865356,12.57939102,13.36158412
3.893345625,-1.242117004,5.667364655,11.6082106,12.97738148
3.903293625,-1.458566895,7.487579498,11.12741043,13.49112772
3.913240625,1.848506012,8.434510345,13.80713791,16.28480876
3.923187625,6.982529755,7.095095673,21.96951416,24.11961146
3.933135625,7.245383148,5.955216064,33.39914612,34.69096621
3.943082625,4.3807901,2.976260834,41.99442215,42.32707103
3.953030625,1.611997833,-0.687819672,43.93573517,43.97067725
3.962977625,2.092798004,-0.311651917,41.69489502,41.74854729
3.972924625,5.127437439,2.070793762,43.22246841,43.57476996
3.982872625,7.147636414,3.726500702,46.40829346,47.10313382
3.992819625,7.264094238,4.236340485,43.79891968,44.59886782
4.002766625,4.798421631,4.94945755,37.4723259,38.10114419
4.012714625,3.042572937,5.21740036,31.11459686,31.69537276
4.022661625,2.617606659,5.604495392,25.37777664,26.12075383
4.032609625,2.589465179,6.348448334,20.5104982,21.62611067
4.042556625,2.611768799,6.019133148,17.88031769,19.04618231
4.052503625,2.027234344,4.985233154,15.95083008,16.8342273
4.062451625,1.589843903,4.072431335,13.44129868,14.13438399
4.072398625,1.713786163,3.485202484,10.76920532,11.44812136
4.082345625,1.783990173,2.815644836,8.325986023,8.968417923
4.092293625,1.696272583,1.868414612,5.671855316,6.207918859
4.102240625,1.779948578,0.757873993,2.706970825,3.327203176
4.112187625,1.811981964,-0.212258606,0.467178497,1.883238727
4.122135625,1.00276474,-1.382525024,-1.167572021,2.068849195
4.132082625,-0.297730865,-2.360890503,-2.754871216,3.64029711
4.142030625,-1.299747162,-2.989134064,-4.531077576,5.58166007
4.151977625,-1.706900482,-3.321443024,-6.086044006,7.140407878
4.161924625,-1.951342163,-3.248993683,-7.054829407,8.008390234
4.171872625,-2.038910065,-2.902464294,-7.776628418,8.547362329
4.181819625,-1.809886322,-2.540067902,-8.709039459,9.250675745
4.191766625,-1.415606232,-1.940414886,-9.82287323,10.11226925
4.201714625,-1.279838562,-1.174906769,-10.30112869,10.44660926
4.211661625,-1.222807159,-0.746198273,-9.878108368,9.981437479
4.221609625,-1.144070892,-0.647254028,-9.061406708,9.156250734
4.231556625,-1.143023071,-0.552950134,-8.184380493,8.282290725
4.241503625,-1.279688873,-0.720152435,-7.191644897,7.34002585
4.251451625,-1.048270111,-0.609831848,-6.063141632,6.183239568
4.261398625,0.099393311,-0.205522614,-4.908143463,4.913449993
4.271345625,1.170565796,0.068557434,-3.808230743,3.984663825
4.281293625,1.597328339,0.06316864,-2.49576004,2.96382629
4.291240625,1.778601379,-0.078137512,-0.871487732,1.982175372
4.301188625,1.641486511,-0.382454681,0.740959167,1.841132814
4.311135625,1.338516541,-0.846040649,2.169887695,2.686228568
4.321082625,0.91145462,-1.286275177,3.247347107,3.609780684
4.331030625,0.598305817,-1.499132538,3.971840515,4.28729347
4.340977625,0.616567841,-1.413211212,4.148323517,4.425597116
4.350924625,1.286873932,-0.757574615,3.976780243,4.247910653
4.360872083,2.308948517,0.174537048,3.77589798,4.429346677
4.370819083,2.680775299,0.762364655,3.795207825,4.708647205
4.380767083,2.462828522,0.989592133,4.96352829,5.628625942
4.390714083,1.651665344,1.344055023,6.644083557,6.976985641
4.400661083,0.666114807,2.251767426,7.614066467,7.967946639
4.410609083,0.014669495,3.910019073,7.394173737,8.364345138
4.420556083,0.060174866,6.103258209,7.361840973,9.562953743
4.430503083,1.14077774,8.004454651,9.968220978,12.83503399
4.440451083,3.995641022,7.907007294,16.21787476,18.47986399
4.450398083,7.756869507,5.522615662,27.96424805,29.54094577
4.460346083,8.116122437,3.856729889,42.96275848,43.89241877
4.470293083,6.070925446,1.745969238,51.85097534,52.23435831
4.480240083,4.779111786,-0.041314087,50.07686462,50.30441319
4.490188083,5.486840057,0.098495178,45.82061554,46.14806522
4.500135083,7.912396088,1.14317276,49.86251038,50.49933462
4.510082083,9.363328857,2.529140625,56.14389816,56.97548403
4.520030083,9.312434692,3.173101501,54.80358536,55.67964602
4.529977083,7.936945038,3.888613586,47.89260681,48.7013162
4.539924084,7.123237152,5.048401794,40.21641953,41.15321698
4.549872083,6.762487335,5.47246994,33.41860565,34.53233797
4.559819083,5.856571198,5.210215302,28.57946869,29.63497596
4.569767084,4.268673248,4.341272278,24.26708633,25.01918655
4.579714083,2.868784332,3.194956055,19.84917343,20.3083075
4.589661083,2.346969452,2.5414151,15.07589951,15.46770191
4.599609083,2.076481934,1.813179474,9.443562012,9.837695894
4.609556083,1.587448883,0.75817337,3.186723175,3.640058435
4.619503083,1.286724243,-0.417032776,-2.589914246,2.921854105
4.629451083,1.378034363,-1.458417206,-7.039860535,7.320218289
4.639398083,1.751358032,-2.769091644,-10.37851776,10.88341649
4.649346083,1.760189667,-4.355343018,-12.61322067,13.45959198
4.659293083,0.836460571,-5.750142517,-13.63918716,14.82535773
4.669240083,-0.603544922,-6.558461609,-13.65370697,15.1592018
4.679188083,-1.953138428,-6.76308609,-12.975168,14.76174339
4.689135083,-2.711461487,-6.440506897,-12.41144028,14.24345472
4.699083083,-2.237097931,-5.431305542,-12.54541168,13.85247419
4.709030083,-1.366807709,-4.232897644,-12.89897644,13.64438269
4.718977083,-0.865649872,-3.322640533,-12.91663971,13.36521123
4.728925083,-0.30416748,-2.658771057,-12.68357437,12.9628176
4.738872083,0.317789154,-2.237097931,-12.26055405,12.46702782
4.748819083,0.513731689,-1.932631073,-11.39086258,11.56506521
4.758767083,0.352516937,-1.816173248,-9.722132721,9.896596289
4.768714083,0.163011017,-1.911375275,-7.632627869,7.870002301
4.778662083,-0.021405487,-1.922901306,-5.693560181,6.009545337
4.788609084,-0.149688721,-1.782343597,-4.093088379,4.466825258
4.798556083,-0.10762619,-1.768871613,-2.698737946,3.228571925
4.808504083,-0.14280304,-1.995650024,-1.409768372,2.447541336
4.818451083,-0.24803421,-2.182760925,-0.040715332,2.197185464
4.828398083,0.257165222,-2.057621155,1.381028137,2.491420776
4.838346083,1.149160309,-1.658401337,2.629881134,3.314685383
4.848293083,1.612297211,-1.301992493,3.643423462,4.191565491
4.858241083,1.631756744,-1.071920929,4.719236298,5.107135771
4.868188083,1.042881317,-1.267713776,6.274651794,6.485827226
4.878135083,0.317190399,-1.637295227,7.789351959,7.965886602
4.888083083,0.160017242,-1.437909851,8.432115326,8.555335127
4.898030083,0.785267029,-0.598904572,7.994275818,8.055046669
4.907977083,1.563498688,0.448617096,7.419920197,7.596117506
4.917925083,2.101330261,1.448088684,7.486082611,7.909107571
4.927872083,2.411185913,2.605631561,8.344846802,9.068605267
4.937819083,2.164947968,4.512815552,9.620643768,10.84478171
4.947767083,1.119372253,6.739285583,10.55829391,12.5757121
4.957714083,-0.577050018,8.613388367,12.44856308,15.14893292
4.967662083,-1.600022736,10.15787659,16.62098648,19.54481315
4.977609083,-0.242346039,9.791438599,23.50726639,25.46610639
4.987556083,2.414329376,7.635921021,33.57922165,34.52101393
4.997504083,3.529061279,6.027815094,44.17179428,44.72064667
5.007451084,1.543739777,5.327271881,49.70982788,50.01829611
5.017399083,-0.869691467,5.413043518,46.06056656,46.38570033
5.027346083,-1.117276611,6.951244812,36.22961014,36.90735377
5.037293084,1.789229279,6.782246246,30.96460876,31.74912915
5.047241083,3.919898529,5.517675934,34.59545837,35.25132753
5.057188083,3.902834015,3.416345673,39.91524582,40.25084322
5.067135083,2.43378891,0.990939331,41.37066925,41.45404158
5.077083083,0.871338043,-0.165256348,38.0495256,38.05985994
5.087030083,0.370329895,0.046253815,30.68079895,30.68306875
5.096978083,0.736917572,0.835562439,23.11463287,23.14146635
5.106925083,1.361718292,1.350491638,16.73340271,16.84294721
5.116872083,1.833237762,1.724264374,12.08796295,12.34717363
5.126820083,2.064656525,1.825753326,8.371641083,8.813657368
5.136767083,2.182461548,1.634151764,4.874313812,5.585026906
5.146714083,2.279160461,1.479074249,1.391955414,3.052830313
5.156662083,2.249671783,1.150657196,-1.587598572,2.984209165
5.166609083,1.93772049,0.303419037,-3.204985199,3.757493038
5.176557083,1.343755646,-0.857416992,-3.851041718,4.167897005
5.186504083,0.93016571,-1.994003448,-4.238136749,4.775255083
5.196451083,0.640218658,-2.657423859,-4.45922699,5.230342899
5.206399083,0.421673126,-2.977158966,-4.669689331,5.554032966
5.216346083,0.173040161,-3.009342041,-5.044809265,5.876749351
5.226293084,-0.106129303,-2.794239349,-5.609584808,6.267892684
5.236241083,-0.525706787,-2.545905762,-6.809639282,7.288977358
5.246188083,-0.824186096,-2.205214233,-8.261470184,8.590351689
5.256136084,-0.828676758,-1.77156601,-9.59474762,9.792054594
5.266083083,-0.51253418,-1.293310547,-10.21655457,10.31083559
5.276030083,0.066312103,-1.029858398,-9.679022369,9.733883071
5.285978083,0.448018341,-1.032103729,-8.461604004,8.53608229
5.295925083,0.343834991,-0.981059875,-7.066954193,7.143006548
5.305872083,-0.016465759,-0.984951782,-5.522915039,5.61007947
5.315820083,-0.280666351,-1.215472412,-3.928281097,4.12159425
5.325767083,-0.469723206,-1.437311096,-2.614163818,3.01999264
5.335715083,-0.610430603,-1.464255066,-1.672322388,2.305066287
5.345662083,-0.56746994,-1.488654327,-0.802032166,1.783639379
5.355609458,-0.484542389,-1.577419739,-0.112266541,1.653976461
5.365557458,-0.350421295,-1.484762421,0.202528839,1.538938745
5.375504458,-0.123792572,-1.150357819,0.39787262,1.223499217
5.385452458,0.074544983,-0.994980927,1.26951004,1.614682551
5.395399458,0.192649384,-1.060993652,2.98135025,3.170373894
5.405346458,0.325123901,-0.898132324,5.094954987,5.18371619
5.415294458,0.290545807,-0.475710754,7.486082611,7.506806941
5.425241458,-0.20357666,0.193697205,9.868977356,9.872977064
5.435188458,-1.231189728,1.253942413,11.67901337,11.81048487
5.445136458,-2.242187347,3.072211304,13.57871292,14.10132373
5.455083458,-3.084934845,5.838009796,16.21383316,17.50678632
5.465031458,-2.100432129,9.449549561,19.49066895,21.7621685
5.474978458,1.341510315,10.79315552,24.3471698,26.66601832
5.484925458,3.989054718,8.239615631,32.32602768,33.59726014
5.494873458,4.102668457,5.00918335,42.72310684,43.21096695
5.504820458,3.766018524,2.801125031,50.63699982,50.85405537
5.514767458,3.295696564,3.003803558,51.48408829,51.67684006
5.524715459,2.683170319,4.043691101,44.67340118,44.93621718
5.534662458,2.822380829,3.767066345,37.50331146,37.79755274
5.544610458,3.189417572,3.226989441,34.86968811,35.1636317
5.554557458,2.463876343,3.766916656,34.05508209,34.35125855
5.564504458,1.381477203,4.337679749,31.08989822,31.4214213
5.574452458,0.781824188,4.434528351,26.05856094,26.44475164
5.584399458,0.202828217,4.529281311,20.40242294,20.90010503
5.594346458,-0.12633728,4.477638702,16.65481613,17.24668402
5.604294458,0.028889923,4.271068268,14.35335205,14.97536557
5.614241458,0.506846008,3.803440704,12.03976318,12.63641372
5.624189458,0.761017456,2.972668304,9.483379211,9.967466362
5.634136458,0.725241852,1.902094574,6.967710571,7.258989607
5.644083458,0.619411926,0.705782318,4.251758423,4.354222032
5.654031458,0.383652191,-0.346230011,1.681303711,1.758933311
5.663978458,0.168100433,-0.99453186,-0.285157013,1.048172648
5.673926458,0.218695221,-1.097667389,-1.332079926,1.739867301
5.683873458,0.202977905,-1.012793884,-1.778601379,2.056787385
5.693820458,-0.041164398,-0.959953766,-1.829944611,2.066858248
5.703768458,-0.192200317,-0.817599792,-2.02424057,2.191565712
5.713715458,-0.101039886,-0.622405701,-2.662812653,2.736451925
5.723662458,0.120948486,-0.459095306,-3.614533539,3.645579479
5.733610458,0.420176239,-0.231867828,-4.729564819,4.753850454
5.743557459,0.435145111,-0.029338989,-5.578449554,5.595472409
5.753505458,0.180524597,0.014819183,-6.047274628,6.049986708
5.763452458,0.301024017,-0.262853394,-6.499035187,6.5113106
5.773399458,0.378712463,-0.763412476,-6.633605347,6.688119439
5.783347458,-0.024998016,-1.049916687,-5.710325317,5.806097242
5.793294458,-0.415086823,-1.046623535,-4.368665314,4.511424888
5.803241458,-0.407901764,-1.17475708,-3.329526215,3.554178226
5.813189458,-0.371976471,-1.304836578,-2.784359894,3.097357746
5.823136458,-0.449515228,-1.392703857,-2.738405457,3.104923899
5.833084458,-0.836310883,-1.580862579,-2.946772156,3.447028942
5.843031458,-1.078656921,-1.777553558,-2.987038422,3.63944995
5.852978458,-0.797242126,-1.809586945,-2.722538452,3.364879722
5.862926458,-0.200283508,-1.801354065,-1.908082123,2.631685266
5.872873458,0.254321136,-1.804946594,-0.45161087,1.877888129
5.882821458,0.370329895,-1.958976288,0.922830963,2.196895381
5.892768458,0.186212769,-2.285447388,1.92245224,2.992284674
5.902715458,-0.234262848,-2.56716156,2.731968842,3.75617509
5.912663458,-0.743204498,-2.795885925,3.396437073,4.461514969
5.922610458,-1.043779449,-2.79184433,3.96420639,4.959717997
5.932557458,-1.138083344,-2.59410553,4.68151474,5.471855029
5.942505458,-1.170565796,-2.300715637,6.083499298,6.608515751
5.952452458,-1.384770355,-1.736987915,8.157586212,8.454639482
5.962400458,-1.700314178,-0.578696594,10.54063065,10.69256061
5.972347458,-2.465971985,0.919986877,13.14461563,13.40553295
5.982294458,-4.632716217,3.25168808,15.48993851,16.49162605
5.992242459,-6.800358582,6.918612671,16.90255096,19.48867125
6.002189458,-6.516848145,10.15982254,18.01758224,21.68696783
6.012137458,-3.84610199,9.74443634,23.38482101,25.62413694
6.022084458,-2.119891663,6.615792389,34.48349121,35.17632465
6.032031458,1.493743744,5.443430328,45.7800499,46.12672948
6.041979458,5.571713562,7.047344971,50.61394775,51.40506561
6.051926458,6.136189728,7.953560486,47.5490712,48.59862262
6.061873458,4.461771698,6.253096619,44.81859924,45.47213941
6.071821458,2.500400391,3.399430847,44.97562271,45.17316427
6.081768458,0.481398926,2.729124756,42.66353073,42.75344105
6.091716458,-0.388741608,4.306245117,37.82948318,38.07577531
6.101663458,-0.807870026,5.760021973,31.64284836,32.17297561
6.111610458,-2.556084595,6.099815369,24.87826538,25.74236594
6.121558458,-3.972588959,5.401218109,19.64230362,20.7551129
6.131505458,-3.822900238,4.152814178,16.12372055,17.0831729
6.141452458,-2.76490036,2.997965698,13.34714447,13.95631534
6.151400458,-1.672172699,2.029629364,10.49497559,10.81943018
6.161347458,-1.100212097,0.96654007,7.40779541,7.55116542
6.171295458,-1.252894592,-0.366887054,4.50009201,4.685635397
6.181242458,-1.362915802,-1.534159698,1.993404694,2.860917289
6.191189458,-1.268462219,-2.338736572,0.3556604,2.684246538
6.201137458,-0.985700226,-3.043022003,-0.437689819,3.228491943
6.211084459,-0.8798703,-3.487597504,-0.907712402,3.709642826
6.221032458,-1.11278595,-3.646267548,-1.743723907,4.192151317
6.230979458,-1.304088135,-3.35691925,-3.026107178,4.703921488
6.240926459,-0.984652405,-2.813848572,-4.261937256,5.201095396
6.250874458,-0.27033783,-2.22078186,-5.495971069,5.93385647
6.260821458,0.174237671,-1.481618958,-6.624923401,6.790814647
6.270768458,0.712817688,-0.842897186,-7.599396973,7.679154841
6.280716458,1.1771521,-0.487536163,-8.505462799,8.600364876
6.290663458,1.255888367,-0.225431213,-9.224866791,9.312692528
6.300611458,0.997525635,-0.101039886,-9.527537384,9.580147966
6.310558458,0.305963745,-0.357456665,-9.225914612,9.237905039
6.320505458,-0.558787994,-0.76520874,-8.390501862,8.443832656
6.330453458,-1.268611908,-0.968036957,-7.487579498,7.655737617
6.340400458,-1.579066315,-0.936452637,-6.665788422,6.913980709
6.350348458,-1.444645844,-0.816102905,-5.685027924,5.922209728
6.360296,-1.306034088,-0.757724304,-4.598138123,4.83970509
6.370243,-1.040785675,-0.793200531,-3.598816223,3.829344606
6.380191,-0.498762817,-0.852926331,-2.66430954,2.841618025
6.390138,0.112116852,-0.909508667,-1.739382935,1.966018616
6.400085,0.575553131,-0.989741821,-0.905317383,1.459606058
6.410033,1.128652954,-0.954564972,-0.028291168,1.478462771
6.41998,1.469494171,-0.924028473,0.84244812,1.929497492
6.429928,1.046623535,-1.168769531,1.642384644,2.271314676
6.439875,0.517922974,-1.664538574,2.414628754,2.978147896
6.449822,0.035925293,-2.287842407,3.236120453,3.963330556
6.45977,-0.591869202,-2.93809021,4.208348694,5.166515457
6.469717,-1.300046539,-3.336860962,5.600154419,6.64729205
6.479665,-2.17991684,-3.285068665,7.539820862,8.508384817
6.489612,-3.108286285,-2.616558838,10.19499939,10.97478184
6.499559,-3.360062714,-1.104403381,13.24520645,13.70931151
6.509507,-2.963237915,1.229842529,15.72988953,16.05374461
6.519454,-2.565814362,4.596940613,17.49157608,18.26664994
6.529401,-0.728834381,8.820407867,19.34472244,21.273201
6.539349,2.088457031,11.28772705,23.20519455,25.88929294
6.549296,4.089196472,8.349038086,33.6024234,34.86475044
6.559244,6.243965607,2.822979584,48.53941177,49.02071823
6.569191,7.808063049,-1.615141296,58.63816132,59.17777026
6.579138,4.26493103,-4.637206879,58.6914505,59.02863446
6.589086,0.290845184,-5.412594452,53.81384354,54.08613987
6.599033,0.260009308,-4.715793457,48.77412369,49.00225969
6.60898,1.751208344,-2.831062775,43.50163788,43.62882241
6.618928,1.263522491,-0.022303619,38.10520981,38.12615901
6.628875,-1.775308228,0.916544037,32.68857376,32.74957445
6.638823,-5.164560242,0.375569,27.08078522,27.57141024
6.64877,-6.267317047,0.086220703,22.13941086,23.0095678
6.658717,-4.699627075,0.658181305,18.40048599,19.00256777
6.668665,-2.177671509,1.41815094,15.18008286,15.40091948
6.678612,-0.333805847,1.764231262,11.90399551,12.03864808
6.68856,0.556842041,1.551224213,8.420589294,8.580366757
6.698507,1.064586182,0.77344162,5.145549774,5.31114283
6.708454,0.998723145,-0.452958069,2.383343811,2.62353705
6.718402,0.589923248,-1.954186249,0.460592194,2.092605673
6.728349,-0.264050903,-3.196452942,-0.849782867,3.31800621
6.738297,-0.985400848,-3.430865479,-1.826950836,4.00993792
6.748244,-1.100062408,-2.937341766,-2.35535202,3.922473339
6.758191,-0.580492859,-2.283052368,-3.102448425,3.895444302
6.768139,0.469573517,-1.713337097,-3.963008881,4.34297855
6.778086,1.442849579,-1.425485687,-4.822222137,5.23141001
6.788033,2.088007965,-1.261726227,-5.871240692,6.357924001
6.797981,2.384840698,-1.194965057,-7.312443695,7.783780536
6.807928,1.877695313,-1.196911011,-8.441695404,8.730438531
6.817876,1.958377533,-1.253343658,-9.44610672,9.728054536
6.827823,1.791773987,-1.106349335,-10.21850052,10.43322653
6.83777,1.075064392,-0.599653015,-10.15084122,10.22521025
6.847718,0.207169189,-0.163909149,-9.143436127,9.147251472
6.857665,-0.168250122,0.059127045,-7.82901947,7.831050375
6.867613,-0.175884247,0.229472809,-6.772815857,6.778984265
6.87756,-0.169148254,0.145796814,-5.71122345,5.715587558
6.887507,-0.058977356,-0.186212769,-4.731361084,4.735391349
6.897455,0.054786072,-0.510887604,-3.828738098,3.863061361
6.907402,0.740360413,-0.62719574,-2.964435425,3.119196279
6.917349,1.937421112,-0.534388733,-2.113754425,2.916698416
6.927297,2.642155609,-0.493074646,-1.392853546,3.02723469
6.937244,2.586471405,-0.659827881,-0.560584259,2.727537694
6.947192,1.894011383,-1.01803299,0.581989746,2.227640535
6.957139,1.054407349,-1.626817017,1.835034027,2.669392879
6.967086,0.36853363,-2.401905212,2.896626434,3.780927186
6.977034,-0.330812073,-3.113375702,3.81332016,4.933959417
6.986981,-1.122216339,-3.499422913,4.297413483,5.654475473
6.996929,-1.887275391,-3.574716339,4.125271454,5.775661856
7.006876,-2.319875793,-3.445385284,3.810326385,5.636585014
7.016823,-2.1950354,-2.917732544,3.992198181,5.410082247
7.026771,-1.203347626,-1.769470367,5.123096466,5.552043614
7.036718,-0.294437714,-0.19070343,7.615713043,7.6237882
7.046666,0.158220978,2.064806213,10.80857346,11.00516782
7.056613,-1.154399414,4.978048096,13.79830627,14.71417197
7.06656,-4.322112122,8.610544281,15.87643478,18.5710341
7.076508,-5.750890961,11.85355042,17.17273911,21.64445362
7.086455,-1.768572235,11.76957504,22.83501434,25.75050727
7.096402,4.037104797,7.435188446,39.49731491,40.3932931
7.10635,7.777077484,2.979404297,60.01619568,60.59128261
7.116297,8.836574249,0.83780777,67.27490112,67.85793459
7.126245,5.676944733,-0.298179932,60.55582352,60.82207144
7.136192,0.85532135,-1.360670471,51.11794968,51.14320852
7.146139,-0.050894165,-1.468296661,45.91417099,45.93767063
7.156087,1.55152359,-0.045056305,42.63239548,42.66064228
7.166034,1.548230438,2.561772766,36.98493942,37.10586802
7.175982,0.47032196,4.346960449,30.10883835,30.42465143
7.185929,-1.769769745,4.59723999,23.61144974,24.11985197
7.195876,-2.912493439,3.72904541,19.03322021,19.61254368
7.205824,-2.164049835,2.941383362,16.32864441,16.7319896
7.215771,-0.421822815,3.071762238,14.0740329,14.41152524
7.225718,1.451381836,3.2341745,11.13070358,11.6815648
7.235666,2.827619934,2.794389038,7.687863007,8.654899317
7.245613,3.248993683,1.500629425,4.487817535,5.740065753
7.255561,2.811453552,-0.803529053,2.061513062,3.577676078
7.265508,1.818867645,-3.251089325,0.098944244,3.726613915
7.275455,0.756526794,-4.689597931,-1.382674713,4.947368079
7.285403,-0.208067322,-4.958588562,-2.544109497,5.577040942
7.29535,-0.572110291,-4.538412323,-3.864513702,5.988235362
7.305298,-0.374521179,-3.761976929,-5.405708771,6.596546357
7.315245,-0.124541016,-2.773432617,-6.961273956,7.494449549
7.325192,0.044008484,-1.684596863,-8.569230194,8.733356139
7.33514,0.570314026,-0.645158386,-9.966275024,10.00340568
7.345087,1.072369995,0.07843689,-10.94883179,11.00150205
7.355034583,1.346599731,0.456101532,-11.42574005,11.51385666
7.364981583,0.93016571,0.361049194,-11.32754425,11.37140376
7.374928583,0.578846283,0.333805847,-10.24963577,10.27139342
7.384876583,-0.114511871,0.420325928,-8.984915771,8.995470987
7.394823583,-1.002165985,0.150137787,-7.513625336,7.581651779
7.404771583,-1.151106262,-0.039368134,-6.17451004,6.281016615
7.414718583,-1.203497314,-0.17902771,-5.278173981,5.416602005
7.424665583,-0.999471588,-0.463436279,-4.348457336,4.485844162
7.434613583,-0.597707062,-0.543220367,-3.283122711,3.381011215
7.444560583,0.238903198,-0.141156464,-2.24428299,2.261372597
7.454507583,1.303339691,0.434845734,-1.368603973,1.939294201
7.464455583,2.13066925,0.91265213,-0.534538422,2.37874267
7.474402583,2.499502258,1.128503265,0.088466034,2.743876345
7.484350583,2.512674866,1.000968475,0.882564697,2.845064729
7.494297583,2.067949677,0.495769043,1.986219635,2.909857599
7.504244583,1.118923187,-0.265847168,3.212769012,3.412410958
7.514192584,0.159568176,-0.974174194,4.517306213,4.623908821
7.524139583,-0.595910797,-1.744771729,5.979016571,6.256834441
7.534087583,-0.800834656,-2.307002563,7.595804443,7.978711808
7.544034583,-0.220641174,-2.380948792,8.854836273,9.172007692
7.553981583,0.527053986,-2.072889404,9.609716492,9.844861982
7.563929583,1.361418915,-1.199904785,10.06656647,10.22883148
7.573876583,1.548978882,-0.034428406,11.16034195,11.26737562
7.583824583,0.031883698,1.168619843,13.04582108,13.09809667
7.593771583,-3.053649902,2.851719818,15.21945099,15.78254644
7.603718583,-5.577551422,5.112917633,16.42743896,18.08623116
7.613666583,-5.560337219,7.976911926,15.9851088,18.71021585
7.623613583,-1.075064392,10.28361511,16.11848145,19.14977669
7.633560583,4.810546417,10.50754944,22.56602371,25.35301517
7.643508583,8.286617889,8.2280896,36.06435379,37.90787661
7.653455583,8.94764328,2.695295105,48.10950577,49.00866741
7.663403583,3.580105133,-2.026036835,49.61657181,49.78680725
7.673350583,-1.793420563,-2.79528717,44.63538025,44.75876627
7.683297583,-1.024020538,-1.763632507,42.02076736,42.0702259
7.693245583,1.778601379,0.980910187,40.84361526,40.89408901
7.703192583,2.260748749,3.445085907,36.31448364,36.54752145
7.713140583,0.890498199,4.71893692,28.93677567,29.33254743
7.723087583,-0.824186096,5.42456955,23.02571777,23.67042282
7.733034584,-1.832788696,5.266198883,20.24180695,20.99577847
7.742982583,-1.186582489,4.313280487,19.6464949,20.14937043
7.752929583,0.219743042,3.393742676,19.01630539,19.31801354
7.762877584,1.279988251,2.674488373,17.46418304,17.71408895
7.772824583,1.755699005,2.021546173,14.62249237,14.86561169
7.782771583,1.642684021,1.077908478,10.41983185,10.60345195
7.792719583,1.363065491,0.31479538,5.933960266,6.096632522
7.802666583,1.059646454,-0.337548065,2.507884827,2.743405841
7.812614583,0.544567566,-1.378483429,0.436342621,1.545045398
7.822561583,0.072898407,-2.293530579,-0.598006439,2.371330511
7.832508583,-0.578397217,-2.500250702,-0.861458588,2.707010863
7.842456583,-1.246457977,-2.248025208,-1.249451752,2.858042075
7.852403583,-1.501677246,-1.95987442,-2.293231201,3.369725751
7.862350583,-1.586251373,-1.866169281,-3.770209808,4.495916281
7.872298583,-1.80539566,-1.793570251,-5.232967987,5.818960534
7.882245583,-1.972448273,-1.567689972,-6.308481445,6.79302158
7.892193583,-1.657503204,-1.131796417,-7.076833649,7.355940082
7.902140583,-0.847537537,-0.541274414,-7.633376312,7.699333204
7.912087583,-0.232316895,0.143401794,-7.754624176,7.759428544
7.922035583,-0.226329346,0.631536713,-7.287745056,7.318558027
7.931982583,-0.475710754,0.685274963,-6.209537201,6.2653216
7.941930583,-0.853225708,0.491727448,-4.880301361,4.97866763
7.951877583,-1.12446167,0.386346588,-3.646716614,3.835651157
7.961824583,-1.121617584,0.408650208,-2.737657013,2.986601232
7.971772583,-0.898132324,0.517473907,-2.386786652,2.602147466
7.981719584,-0.720152435,0.554447021,-2.424358521,2.589120558
7.991667583,-0.662821655,0.408051453,-2.324815521,2.451653675
8.001614583,-0.571810913,0.078137512,-1.742975464,1.836038305
8.011561583,-0.59785675,-0.364791412,-0.856069794,1.106056491
8.021509583,-0.74649765,-0.778830414,0.136067047,1.087359093
8.031456583,-0.930914154,-1.041085052,0.977766724,1.704842226
8.041404583,-0.965941315,-1.151555328,1.677262115,2.252183496
8.051351583,-0.896036682,-1.214125214,2.138003998,2.616876547
8.061298583,-0.857117615,-1.304537201,2.389031982,2.853759227
8.071246583,-0.572709045,-1.250349884,2.361339569,2.732635183
8.081193583,-0.120649109,-1.052760773,2.340233459,2.56895973
8.091141583,0.237855377,-0.769549713,2.306104431,2.442723805
8.101088583,0.590971069,-0.451910248,2.420316925,2.532074978
8.111035583,0.795146484,-0.17079483,3.157683563,3.260735238
8.120983583,0.683628387,0.487835541,4.536316681,4.613404417
8.130930583,0.217946777,1.644779663,6.070775757,6.293418723
8.140878583,-0.242944794,3.015778656,7.999814301,8.552834145
8.150825583,-0.15328125,4.63002182,10.5889801,11.55798844
8.160772583,0.554746399,6.3979953,14.46591797,15.82734564
8.170720583,3.243305511,7.142397308,21.5376622,22.92168761
8.180667583,8.576864319,6.306236115,33.97963898,35.60824456
8.190614583,13.19057007,4.891677704,49.59337006,51.55018917
8.200562583,12.90017395,2.946173401,57.67431564,59.17280719
8.210509583,10.10084518,1.085392914,52.40287766,53.37852319
8.220457583,6.376589813,2.140698395,41.079375,41.62641634
8.230404584,6.567891998,3.460354156,36.64903793,37.3933582
8.240351583,8.592581635,4.27316391,40.92654282,42.03658283
8.250299583,7.2685849,5.212460632,43.24956207,44.16476754
8.260246583,4.506828003,5.178331604,39.24329315,39.83921026
8.270194583,1.811083832,5.065166931,32.25582367,32.70128593
8.280141583,1.091380463,5.779481506,25.57252167,26.2401864
8.290088583,2.015109558,6.34186203,21.28528702,22.30119557
8.300036583,2.771636353,6.256090393,18.68998398,19.903169
8.309983583,2.845432892,5.465284882,15.7939563,16.9533148
8.319931583,2.884351959,4.554429016,12.31578918,13.44399394
8.329878583,2.517913971,3.563639374,9.056916046,10.05321564
8.339825583,1.742825775,2.173629913,5.989195404,6.60549546
8.349773583,0.895288239,0.634530487,3.01877243,3.21203315
8.359720459,0.196690979,-0.664767609,0.572559357,0.899125982
8.369668458,-0.1088237,-1.66498764,-1.061442719,1.977545723
8.379615458,-0.273630981,-2.330204315,-2.001338196,3.083841863
8.389562458,-0.459694061,-2.567760315,-2.407294006,3.549616331
8.399510458,-0.613574066,-2.602637787,-2.598895569,3.728867759
8.409457458,-0.790057068,-2.355651398,-2.924917603,3.837763237
8.419405458,-0.876277771,-1.709594879,-3.911965027,4.358216121
8.429352458,-1.111438751,-0.906963959,-5.442532196,5.628413313
8.439299458,-1.103056183,-0.223934326,-7.054080963,7.1433142
8.449247458,-0.990041199,0.150137787,-8.078999634,8.140820475
8.459194458,-0.872385864,0.279917908,-8.287066956,8.337558987
8.469141458,-0.961600342,0.269888763,-7.871231689,7.934343292
8.479089458,-0.953966217,0.398471375,-7.078031158,7.1531361
8.489036458,-0.141455841,1.003363495,-5.63518158,5.725558444
8.498984458,0.681233368,1.962568817,-3.464844818,4.039913969
8.508931458,1.342408447,2.676434326,-0.969533844,3.147277715
8.518878458,2.371518402,3.125799866,1.175355835,4.095874225
8.528826458,2.635868683,3.195854187,2.604134674,4.893138573
8.538773458,2.219434662,2.879112854,3.157533875,4.815101371
8.548721458,1.414857788,2.22901474,3.537593536,4.414170058
8.558668458,0.499211884,1.565294952,4.097129974,4.414276251
8.568615458,-0.272433472,1.004111938,4.163442078,4.291469529
8.578563458,-0.738863525,0.637524261,3.790866852,3.914463946
8.588510458,-0.722996521,0.460891571,3.392994232,3.499650678
8.598458458,-0.136516113,0.468226318,2.735561371,2.778699075
8.608405459,0.699196014,0.711320801,2.353705444,2.556321902
8.618352458,1.093176727,0.600401459,2.661764832,2.939474322
8.628300458,0.700992279,-0.035027161,3.612737274,3.680283643
8.638247458,0.154628448,-0.730780334,4.713248749,4.772071209
8.648195458,-0.150736542,-1.153800659,5.276527405,5.403306295
8.658142458,-0.258063354,-1.056652679,5.642965393,5.746840002
8.668089458,-0.368383942,-0.307011566,6.028862915,6.047904668
8.678037458,-0.543819122,1.866019592,6.201154633,6.498621941
8.687984458,-1.133442993,5.332660675,6.220464478,8.271405032
8.697932458,-2.182461548,8.754694519,6.079158325,10.87952115
8.707879458,-2.659220123,10.760224,6.715335388,12.95953709
8.717826458,-0.535286865,10.20398071,9.572893066,14.00171547
8.727774458,4.17841095,7.707621918,16.34106857,18.54446213
8.737721458,6.647975464,6.013594666,27.62101181,29.03926983
8.747669458,6.59932663,5.010829926,39.55629227,40.41484611
8.757616458,5.423970795,3.669020233,46.20681244,46.6685192
8.767563458,5.424270172,2.761906586,44.78417084,45.19593779
8.777511458,5.56138504,3.725452881,35.45003128,36.07648431
8.787458458,6.597081299,7.088060303,25.51429276,27.28994715
8.797406458,9.145232391,11.63275955,18.56918518,23.74386255
8.807353458,10.67370392,15.00524643,16.42953461,24.67822893
8.817300458,9.036109314,15.57870392,18.89430908,26.1025325
8.827248458,4.457879791,13.58290421,20.0326918,24.61050019
8.837195458,0.154179382,10.41713745,17.72015076,20.55588156
8.847143458,-2.735561371,7.122638397,15.04386612,16.86811138
8.857090459,-4.454436951,4.828059998,13.79561188,15.27976044
8.867037458,-4.689298553,3.713477783,13.34489914,14.62415027
8.876985458,-3.612587585,3.545227661,12.86260208,13.82266112
8.886932458,-1.539249115,4.175566864,11.97165482,12.77204625
8.896879458,0.637524261,4.987029419,10.22867935,11.39749011
8.906827458,2.126178589,5.307812347,7.580087128,9.49480006
8.916774458,3.062780914,4.573140106,5.120851135,7.517802452
8.926722458,3.09017395,2.620001678,3.476071472,5.33822599
8.936669458,1.731150055,0.170645142,2.577639771,3.10969887
8.946617458,-0.352516937,-1.417552185,2.392325134,2.803023713
8.956564458,-2.059118042,-1.974992981,2.255060577,3.636737906
8.966511458,-2.727328491,-2.311343536,1.619332581,3.924648729
8.976459458,-2.846331024,-2.673739929,-0.055384827,3.905579725
8.986406458,-2.746937714,-2.522404633,-2.433040466,4.45285053
8.996354458,-2.070943451,-1.536105652,-4.492158508,5.179567107
9.006301458,-1.053658905,-0.287102966,-5.719007263,5.82234225
9.016248458,-0.099542999,0.564775543,-5.932014313,5.959670631
9.026196458,0.336200867,0.749790802,-5.314698029,5.377846447
9.036143458,0.316142578,0.368833008,-3.92334137,3.953301332
9.046091458,0.221389618,-0.041763153,-2.041604462,2.053997639
9.056038458,0.046553192,-0.094902649,-0.290396118,0.309036596
9.065985458,-0.22588028,0.108075256,1.025367737,1.05550043
9.075933458,-0.386496277,0.107476501,1.373543701,1.430927276
9.085880458,-0.262853394,-0.02574646,1.077758789,1.10964805
9.095828458,0.358354797,0.462987213,1.408720551,1.525538892
9.105775459,1.246308289,1.19227066,2.270478516,2.851292052
9.115722458,2.041305084,1.608704681,2.68421814,3.736292845
9.125670458,2.350412292,1.772015076,2.318827972,3.747190753
9.135617458,2.321073303,1.854942627,1.809437256,3.478829776
9.145565458,2.090552673,1.673370209,1.420545959,3.031258676
9.155512458,1.622476044,1.230441284,1.304088135,2.418069505
9.165459458,1.077010345,0.753233643,1.604064331,2.073724809
9.175407458,0.610430603,0.370329895,1.957180023,2.083344282
9.185354458,0.310604095,0.078137512,1.637145538,1.668180412
9.195302458,0.463136902,0.135318604,0.971928864,1.085104894
9.205249458,1.037642212,0.428708496,0.539178772,1.24547424
9.215196458,1.314566345,0.64590683,0.667012939,1.609405657
9.225144458,0.309406586,1.141675873,1.125210114,1.632560576
9.235091458,-1.890568542,2.475102997,0.97118042,3.262449336
9.245039458,-3.892804871,4.480033722,0.104482727,5.935953887
9.254986458,-4.991969147,6.774462433,-0.878523102,8.460786019
9.264933458,-4.623884583,9.159303131,-0.558937683,10.27548314
9.274881458,-0.560284882,10.0489032,4.188140717,10.90114202
9.284828458,6.389612732,8.800648956,16.40678192,19.68403073
9.294776458,10.59182419,6.533164215,33.69238632,35.91720855
9.304723458,12.08811264,2.321372681,49.78976166,51.28870835
9.314670458,11.58545792,-1.764231262,57.75933884,58.93620763
9.324618458,9.357490997,-2.365680542,58.03761017,58.83471149
9.334565458,8.827592926,-0.571212158,57.02900757,57.71100748
9.344512458,11.3812825,2.326761475,55.99196411,57.18432876
9.354460459,11.33862122,5.858816528,52.39629135,53.92829878
9.364410084,7.762258301,7.977810059,45.7879834,47.12151877
9.374358083,3.807781677,8.19650528,37.05993347,38.14604264
9.384305083,2.001038818,8.823701019,29.43464035,30.79382907
9.394252083,2.396965485,9.482930145,24.88170822,26.73519799
9.404200083,2.717449036,8.858877869,21.53586594,23.44478125
9.414147083,2.320175171,7.769293671,17.20641907,19.02119854
9.424095083,1.722617798,6.729705505,12.42610977,14.23603008
9.434042083,1.837878113,5.778733063,7.930658112,9.983330599
9.443990083,2.494263153,5.513334961,4.556075592,7.574697081
9.453937083,3.02236496,5.053940277,1.17355957,6.00451866
9.463884083,3.209326172,3.865262146,-2.003733215,5.408786623
9.473832083,3.090473328,2.515518951,-4.404440918,5.9395253
9.483779083,2.850821686,1.073118439,-5.630241852,6.401436618
9.493727083,2.077679443,-0.340092773,-6.066734161,6.421656978
9.503674083,0.53244278,-1.784888306,-6.58061554,6.839139014
9.513621083,-0.970282288,-2.953358459,-7.488627319,8.108225024
9.523569083,-2.191143494,-3.619473267,-8.343499603,9.354981676
9.533516083,-3.08897644,-3.759881287,-9.015751648,10.2451091
9.543464083,-3.711082764,-3.647015991,-9.306447144,10.66221456
9.553411083,-3.770658875,-3.412753143,-9.220376129,10.52996146
9.563358083,-3.381468201,-3.057092743,-9.302106171,10.35902131
9.573306083,-2.467319183,-2.437980194,-9.41332489,10.03205347
9.583253083,-1.417103119,-1.783092041,-8.811576233,9.101179824
9.593201083,-1.292412415,-1.279688873,-8.177345123,8.377165793
9.603148083,-1.387614441,-1.270108795,-7.59266098,7.822221612
9.613095084,-1.260828094,-1.383872223,-6.688092041,6.945168462
9.623043083,-1.159638519,-1.356329498,-5.40346344,5.69050159
9.632990083,-0.914298706,-1.205742645,-3.944148102,4.22445993
9.642938084,-0.313897247,-1.161434784,-2.902164917,3.141659346
9.652885083,0.286504211,-1.282682648,-2.157164154,2.526008041
9.662832083,0.568218384,-1.474882965,-1.478176117,2.164060194
9.672780083,0.797691193,-1.811981964,-0.72658905,2.108914774
9.682727083,0.896934814,-2.173929291,0.144898682,2.35615285
9.692675083,0.870888977,-2.357148285,0.960552521,2.690215009
9.702622083,0.927621002,-2.501897278,1.596280518,3.109353985
9.712569083,0.805924072,-2.648442535,2.021396484,3.427798889
9.722517083,0.605041809,-2.741399231,2.245480499,3.594930877
9.732464083,0.759071503,-2.74379425,2.346670074,3.689370796
9.742412083,1.604962463,-2.586172028,2.684667206,4.058525381
9.752359083,2.368824005,-2.349214783,3.040626984,4.513928413
9.762306083,2.390828247,-2.125729523,3.128943329,4.474938219
9.772254083,1.716779938,-1.648970947,3.282973022,4.055163425
9.782201083,0.444126434,-0.426612854,4.179758148,4.224881654
9.792149083,-0.864152985,1.019829254,5.556445313,5.714971268
9.802096083,-1.837279358,2.441273346,6.53376297,7.212868329
9.812043083,-1.576521606,3.503464508,7.344028015,8.288210387
9.821991083,1.860331421,4.032464447,10.04650818,10.98425824
9.831938083,8.572822723,5.119503937,17.76700333,20.38060395
9.841886083,14.86843094,5.361700287,30.10823959,34.00476672
9.851833083,17.06152039,3.479514313,44.09245926,47.40619644
9.861780084,13.7382811,-0.285007324,52.42757629,54.19845342
9.871728083,7.704029388,-1.90957901,50.79417297,51.41056865
9.881675083,5.215155029,0.144299927,45.89875305,46.19430913
9.891623084,8.37553299,3.358715515,44.61651947,45.51993335
9.901570083,12.62983612,6.081403656,46.40559906,48.47654954
9.911517083,14.02448593,7.741002502,47.55984879,50.18514264
9.921465083,11.53186935,7.656727753,45.65910141,47.71124639
9.931412083,8.022566986,7.152276764,41.39372131,42.76630459
9.941360083,6.38631958,7.19254303,36.03651169,37.2980955
9.951307083,5.724396057,7.50030304,30.84755219,32.2582506
9.961254083,5.252277832,7.702981567,25.574767,27.22115087
9.971202083,4.750970306,7.052883453,20.02790176,21.75848646
9.981149083,4.203558655,6.102509766,14.86648499,16.61092733
9.991097083,3.699257355,5.163512421,10.384655,12.17322574
10.00104408,3.223845978,3.876638489,6.856791229,8.510998462
10.01099108,2.902164917,2.195933533,4.173321533,5.537264479
10.02093908,2.510130157,0.218246155,2.120939484,3.293443348
10.03088608,1.573677521,-1.59837616,0.639919281,2.332544528
10.04083408,0.474213867,-3.02116745,-0.442629547,3.090024671
10.05078108,0.009131012,-4.165088654,-1.184935913,4.330371807
10.06072908,-0.246986389,-5.092410278,-1.836231537,5.418984312
10.07067608,-1.040935364,-5.701942749,-2.459385681,6.296370024
10.08062308,-1.778601379,-6.132746887,-3.39089859,7.229951625
10.09057108,-2.288291473,-6.238127747,-4.589905243,8.075750478
10.10051808,-2.484832764,-5.87737793,-5.702391815,8.557758913
10.11046608,-2.412533112,-5.35197052,-6.306236115,8.615829524
10.12041308,-2.17048645,-4.77282486,-6.70575531,8.512227843
10.13036008,-1.768123169,-4.115691376,-7.156318359,8.44263392
10.14030808,-1.288969574,-3.414250031,-7.480843506,8.323554853
10.15025508,-1.301393738,-2.844235382,-7.698191528,8.309359384
10.16020308,-2.209704895,-2.894979858,-7.88515274,8.685582182
10.17015008,-2.765199738,-3.011287994,-7.588320007,8.619558313
10.18009708,-2.940634918,-2.778522034,-7.180717621,8.241979372
10.19004508,-2.812052307,-2.441423035,-6.642736359,7.615387774
10.19999208,-2.517913971,-2.123484192,-6.094426575,6.927561703
10.20994008,-2.316283264,-1.910926208,-5.812712402,6.542509657
10.21988708,-1.898651733,-1.828298035,-5.540578308,6.135597778
10.22983408,-1.395847321,-1.675765228,-5.195396118,5.634600222
10.23978208,-0.897982635,-1.443747711,-4.819228363,5.110356375
10.24972908,-0.490080872,-1.356329498,-4.402195587,4.632400561
10.25967708,-0.213905182,-1.445543976,-4.048630829,4.304272807
10.26962408,-0.143701172,-1.625170441,-3.537743225,3.895825473
10.27957208,-0.534538422,-1.794169006,-2.905158691,3.456113535
10.28951908,-0.98525116,-2.06750061,-2.536026306,3.417119847
10.29946608,-1.489851837,-2.345622253,-2.48992218,3.731127807
10.30941408,-1.708846436,-2.295326843,-2.261646881,3.647427597
10.31936108,-1.546434174,-1.930535431,-1.444795532,2.864587201
10.32930908,-1.646426239,-1.180744629,-0.105081482,2.02877287
10.33925608,-2.057621155,-0.102237396,1.703008575,2.672918912
10.34920308,-2.544259186,1.036444702,3.971690826,4.829265001
10.35914937,-2.732717285,1.987566833,6.290668488,7.140775567
10.36909638,-1.45213028,3.081641693,9.679920502,10.26187404
10.37904438,3.079995117,4.924758911,15.21241562,16.28364852
10.38899137,8.583300934,6.763385468,24.16859116,26.52427636
10.39893838,12.71515869,7.501799927,37.93127151,40.70299278
10.40888638,15.26211227,6.747368774,53.51790894,56.05912623
10.41883337,17.68212982,4.521497498,63.7584137,66.31920515
10.42878138,18.73863281,3.151246948,65.34331787,68.05009851
10.43872838,18.42443619,3.985462189,65.22820724,67.89744309
10.44867537,19.01585632,4.880750427,66.04041824,68.89674418
10.45862338,16.4296843,6.074218597,64.65879135,66.98947646
10.46857038,11.65985321,6.303392029,57.15010574,58.66702238
10.47851837,6.743925934,6.304290161,43.278452,44.2521075
10.48846538,2.60697876,7.965086517,29.23854813,30.41597669
10.49841238,0.589623871,10.14350647,20.69820786,23.05762755
10.50836037,0.47391449,10.74735077,17.15193237,20.24645469
10.51830738,1.016685791,9.953401794,14.74224335,17.8167785
10.52825538,1.009650421,8.077203369,10.74899734,13.48338059
10.53820238,1.322350159,6.039041748,5.816155243,8.488009012
10.54815038,1.897154846,4.602030029,1.037941589,5.084800846
10.55809738,2.212249603,3.587589569,-2.887495422,5.109058332
10.56804438,2.219135284,2.501747589,-5.208419037,6.18958248
10.57799238,1.814676361,1.152902527,-5.802683258,6.188163502
10.58793938,0.727487183,-0.58857605,-5.37187912,5.452774032
10.59788738,-0.477057953,-2.597248993,-4.490511932,5.209413022
10.60783437,-1.772613831,-4.403093719,-3.314257965,5.789101826
10.61778138,-3.083737335,-5.655838623,-2.26179657,6.827420465
10.62772938,-3.85538269,-6.170767822,-1.4730867,7.423768291
10.63767637,-3.907025299,-6.253096619,-0.772693176,7.413711537
10.64762438,-3.514391785,-6.045328674,-0.723595276,7.02997429
10.65757138,-2.941083984,-5.565426636,-1.252744904,6.418202119
10.66751837,-1.774709473,-4.848267975,-2.530637512,5.749732367
10.67746638,0.205372925,-3.609893188,-4.433779907,5.721180921
10.68741338,1.292861481,-2.220931549,-6.27749588,6.783139559
10.69736137,1.122216339,-1.122815094,-7.634573822,7.797871549
10.70730838,0.422870636,-0.566571808,-8.625513153,8.654438188
10.71725538,-0.393980713,-0.820443878,-8.831185455,8.877960661
10.72720337,-0.85187851,-1.60765686,-7.743996277,7.954856121
10.73715038,-0.80263092,-2.316582642,-6.432124329,6.883530701
10.74709838,-0.82957489,-2.613115997,-5.370531921,6.029857613
10.75704537,-1.088386688,-2.651136932,-4.651876373,5.463795971
10.76699338,-1.253343658,-2.671195221,-4.3807901,5.281806143
10.77694038,-0.937350769,-2.71340744,-4.203408966,5.090172231
10.78688738,-0.440533905,-2.668051758,-3.794309692,4.659330032
10.79683538,-0.042810974,-2.603535919,-3.220852203,4.14175337
10.80678238,0.178878021,-2.563569031,-2.702031097,3.728921503
10.81673038,0.430654449,-2.514920197,-2.405048676,3.506357937
10.82667738,0.725690918,-2.443219299,-2.21853653,3.37903125
10.83662438,1.024768982,-2.402503967,-2.009421387,3.29544399
10.84657238,1.166224823,-2.403252411,-1.759740601,3.198810634
10.85651937,1.060993652,-2.358495483,-1.486408997,2.982887893
10.86646738,0.81789917,-2.304457855,-1.104403381,2.683130986
10.87641438,0.551602936,-2.169438629,-0.586480408,2.314020102
10.88636237,0.200433197,-1.982327728,0.011376343,1.992467342
10.89630938,-0.31823822,-1.62876297,0.874331818,1.8757933
10.90625638,-0.713566132,-0.852177887,2.098336487,2.374531488
10.91620437,-0.693956909,0.347427521,3.509002991,3.593798
10.92615138,-0.401465149,1.926643524,5.232069855,5.589962835
10.93609938,0.670006714,4.008214874,7.90506134,8.888458262
10.94604637,2.876867523,6.436315613,11.94710587,13.87212543
10.95599338,6.797514496,9.27995224,19.47674789,22.62006688
10.96594138,12.63956589,10.48090485,35.99953857,39.56734474
10.97588837,17.03757019,8.049660645,55.9814859,59.0677797
10.98583638,16.26427826,3.999981995,67.12117081,69.17931897
10.99578338,12.33225494,1.175505524,65.63925247,66.79803732
11.00573037,10.65080154,0.714314575,59.33211823,60.28474162
11.01567838,12.45904129,3.306923218,58.51391968,59.91696126
11.02562538,12.84957916,5.894592133,61.6960025,63.29498105
11.03557338,8.995543671,5.455555115,58.89427872,59.82657397
11.04552038,3.505859528,3.179987183,48.89147964,49.12005854
11.05546738,-0.591569824,2.549797668,37.2094725,37.30142446
11.06541538,-1.453926544,4.667743378,27.23975464,27.67500611
11.07536238,-0.447868652,6.822662201,20.52397018,21.63290683
11.08531038,0.408949585,6.830446014,15.91161163,17.32055476
11.09525738,0.734971619,5.642666016,11.86612427,13.1599684
11.10520538,1.408421173,4.306843872,7.832612,9.048887505
11.11515238,2.186652832,3.042123871,3.876189423,5.390808167
11.12509938,2.59754837,1.967807922,0.043559418,3.259052466
11.13504737,2.228715363,1.425485687,-2.956052856,3.967042992
11.14499438,1.240470428,0.947828979,-4.726571045,4.977712376
11.15494238,0.208666077,0.108524323,-5.40226593,5.407383493
11.16488937,-0.831820221,-1.255588989,-5.094356232,5.312334139
11.17483638,-1.636397095,-3.128943329,-3.842808838,5.218741378
11.18478438,-2.199526062,-4.911137238,-2.104324036,5.77800688
11.19473137,-2.475402374,-5.774541779,-0.295635223,6.289701889
11.20467938,-2.481988678,-5.817352753,1.213227081,6.440014037
11.21462638,-1.865420837,-5.899082794,1.456022186,6.356018669
11.22457337,-0.919837189,-6.055657196,0.063468018,6.125447961
11.23452138,-0.045056305,-5.632636871,-2.478545837,6.15400826
11.24446838,0.594114532,-4.453538818,-5.633684692,7.205926956
11.25441637,1.275647278,-3.237317963,-8.229736176,8.935102746
11.26436338,1.374741211,-2.374811554,-9.796228638,10.17328555
11.27431138,1.108744354,-1.841470642,-10.37253021,10.59290853
11.28425838,0.84364563,-1.682501221,-10.10219238,10.27603227
11.29420538,0.556243286,-1.826352081,-9.322014771,9.51550986
11.30415338,0.269589386,-2.054926758,-8.617429962,8.863154155
11.31410038,0.094303894,-2.280357971,-8.097561035,8.413050601
11.32404838,-0.205522614,-2.41852066,-7.627089386,8.003997391
11.33399538,-0.465980988,-2.524350586,-7.191195831,7.635625819
11.34394238,-0.490979004,-2.568957825,-6.895111542,7.374494414
11.35389038,-0.24459137,-2.522554321,-6.569538574,7.041444619
11.363837,0.206720123,-2.446213074,-6.193670197,6.662450159
11.373785,0.446671143,-2.312690735,-5.865851898,6.321097376
11.383732,0.290396118,-2.2348526,-5.583389282,6.021057376
11.39368,0.089962921,-2.375110931,-5.199587402,5.717075688
11.403627,0.037571869,-2.738704834,-4.538861389,5.301243111
11.413574,-0.064665527,-3.093616791,-3.673959961,4.803397576
11.423522,-0.20597168,-3.222648468,-2.820285187,4.287411342
11.433469,-0.474363556,-3.200644226,-1.951940918,3.778785201
11.443417,-0.658330994,-2.989283752,-1.117276611,3.258454246
11.453364,-0.692759399,-2.462678833,0.016465759,2.558314629
11.463311,-0.720900879,-1.602417755,1.472338257,2.292426811
11.473259,-0.028440857,-0.234262848,3.034489746,3.043651751
11.483206,0.997525635,1.394949188,5.367837524,5.635123807
11.493154,2.542762299,3.471730499,9.196575623,10.15359818
11.503101,4.556824036,5.413342896,14.73011856,16.34152133
11.513048,7.511380005,5.845344543,22.1242923,24.08470868
11.522996,12.27222977,3.955674133,32.60893936,35.06562287
11.532943,16.87605606,1.349294128,46.58791992,49.56870127
11.542891,19.36328384,0.236059113,57.49079727,60.66452222
11.552838,19.78630417,-0.576151886,61.67280075,64.77163064
11.562786,17.44502289,-1.802551575,63.88130814,66.24499638
11.572733,13.87644379,-3.093916168,65.7570575,67.27643436
11.58268,9.146130524,-2.466720428,65.12357483,65.80893869
11.592628,5.848787384,-0.379460907,59.2767334,59.56579074
11.602575,3.736829224,1.355131989,49.43559814,49.59514734
11.612523,1.781744843,3.086581421,38.79572388,38.95907841
11.62247,0.405806122,4.74932373,29.27132996,29.65689653
11.632417,-0.104782104,5.085973663,22.54446854,23.11127796
11.642365,-0.154029694,3.961362305,17.48319351,17.92702351
11.652312,-0.207468567,2.791994019,13.27050385,13.56261575
11.66226,-0.16031662,1.749711456,9.566306763,9.72632596
11.672207,0.060773621,0.867446136,5.987548828,6.050363394
11.682154,0.302670593,0.39787262,2.684816895,2.730962077
11.692102,0.23396347,-0.013621674,0.274229736,0.360730375
11.702049,0.094303894,-0.960552521,-1.077160034,1.446315356
11.711997,0.067659302,-2.218835907,-2.288890228,3.18854654
11.721944,-0.281414795,-3.334316254,-2.968926086,4.473408239
11.731892,-1.078357544,-4.476441193,-3.337459717,5.686828475
11.741839,-2.007774811,-5.270689545,-3.537743225,6.657849134
11.751786,-2.4525,-5.525010681,-3.954177246,7.223296821
11.761734,-2.746638336,-5.590574341,-4.763544159,7.841549373
11.771681,-2.621797943,-5.360502777,-6.027665405,8.481837343
11.781629,-2.222877502,-4.579127655,-7.469467163,9.038945413
11.791576,-1.485660553,-3.301833801,-8.81891098,9.533230544
11.801524,-0.231119385,-1.990710297,-9.617799683,9.824378575
11.811471,0.638422394,-1.362616425,-9.457483063,9.576444672
11.821418,1.103505249,-1.168021088,-9.096433868,9.237267248
11.831366,1.334325256,-0.829125824,-8.885971527,9.023766592
11.841313,0.713416443,-0.93375824,-8.56848175,8.648684697
11.851261,-0.018262024,-1.363065491,-8.018675079,8.133721846
11.861208,-0.493224335,-1.753154297,-7.050638123,7.282054529
11.871155,-0.574954376,-1.75629776,-5.98844696,6.267108692
11.881103,-0.406255188,-1.426832886,-4.878205719,5.098802447
11.89105,-0.482746124,-1.297501831,-3.075504456,3.372726268
11.900998,-0.256716156,-1.578317871,-2.444416809,2.920986824
11.910945,0.090561676,-1.980830841,-2.049537964,2.851753514
11.920893,0.764909363,-2.013612671,-1.487756195,2.617850419
11.93084,1.70719986,-1.943258972,-1.035247192,2.786130568
11.940787,2.126627655,-1.998943176,-0.265547791,2.930671362
11.950735,2.123633881,-2.036215668,0.564775543,2.995824848
11.960682,1.974394226,-2.087558899,0.896485748,3.009953723
11.97063,1.931732941,-2.003284149,1.185085602,3.024759068
11.980577,2.017354889,-1.677262115,1.662891998,3.10614532
11.990524,2.046544189,-1.275198212,2.407593384,3.407488738
12.000472,1.970053253,-0.970132599,3.300636292,3.964399956
12.010419,1.576371918,-0.006586304,4.496200104,4.764536407
12.020367,0.989292755,0.997825012,6.087690582,6.247746116
12.030314,1.490749969,2.613565063,7.881111145,8.435933303
12.040262,2.951562195,4.997058563,9.464368744,11.10209842
12.050209,4.16553772,7.136559448,10.26774811,13.17986481
12.060156,3.942800903,8.395890656,9.687255249,13.41191907
12.070104,3.458857269,7.299720154,9.980046387,12.83942887
12.080051,4.186943207,1.877845001,16.62891998,17.25044275
12.089999,5.78846283,-6.409671021,30.14655991,31.35929302
12.099946,11.67616928,-11.94081894,48.34870834,51.15186883
12.109893,18.27669342,-11.98527649,68.51926346,71.92060789
12.119841,18.83847519,-13.23847046,79.15524582,82.43602482
12.129788,13.37229218,-17.39248215,74.36116516,77.52999108
12.139736,6.465953979,-17.66027527,62.30313995,65.07975977
12.149683,4.194128265,-14.2584494,51.07409088,53.19263906
12.159631,3.7384758,-9.172026672,41.95505402,43.10833831
12.169578,2.039957886,-3.914958801,34.72808258,35.00754276
12.179525,0.239202576,-0.722697144,29.13182007,29.14176469
12.189473,-1.444945221,0.009430389,24.35345673,24.39628681
12.19942,-2.70756958,-0.491278381,20.20648041,20.39299237
12.209368,-2.732717285,-0.999022522,16.48447037,16.73928174
12.219315,-1.73519165,-1.169517975,13.51374802,13.67479608
12.229262,-0.323028259,-1.047671356,10.26071274,10.31911762
12.23921,1.040336609,-1.227746887,6.427933044,6.626310127
12.249157,1.919757843,-1.612446899,2.859503632,3.802922061
12.259105,2.17991684,-2.403851166,0.187110901,3.250468942
12.269052,2.152224426,-3.590733032,-2.035467224,4.654950108
12.279,1.537602539,-4.071383514,-3.293900299,5.458036686
12.288947,0.604742432,-3.855682068,-3.833677826,5.470747964
12.298894,0.164507904,-3.711232452,-4.623136139,5.930741684
12.308842,-0.007634125,-3.567980347,-5.653742981,6.685458229
12.318789,-0.073347473,-3.050805817,-6.83209259,7.482665644
12.328737,0.477656708,-2.427501984,-8.319699097,8.679764678
12.338684,1.531165924,-1.696422272,-10.13227982,10.38679026
12.348631,2.10028244,-0.939895477,-11.50028503,11.72822006
12.358579,2.251318359,-0.586779785,-12.08392136,12.30584821
12.36852608,1.936672668,-0.622705078,-12.21714432,12.3853574
12.37847408,1.126407623,-0.678089905,-12.1801712,12.2509253
12.38842108,0.167950745,-0.628542938,-11.94216614,11.95987482
12.39836908,-0.862955475,-0.585582275,-11.39340729,11.44103703
12.40831608,-1.690883789,-0.633632355,-10.8199498,10.9695894
12.41826308,-1.446142731,-0.777183838,-10.22628433,10.35723104
12.42821108,-0.533041534,-0.846340027,-9.150770874,9.205271984
12.43815808,-0.039218445,-0.781973877,-7.824977875,7.864051117
12.44810608,0.106578369,-0.985700226,-6.78763504,6.859661313
12.45805308,0.362246704,-1.601819,-5.972430267,6.194107691
12.46800108,0.881666565,-2.246378632,-5.142855377,5.680890275
12.47794808,1.481918335,-2.749931488,-4.210144958,5.242473244
12.48789508,2.016756134,-3.262465668,-3.421135712,5.139567793
12.49784308,2.33903595,-3.739972687,-3.124752045,5.405789509
12.50779008,2.369572449,-4.063000946,-3.14750473,5.659473147
12.51773808,2.123035126,-4.205953674,-3.094814301,5.636949531
12.52768508,1.791175232,-4.281845856,-2.664608917,5.351883157
12.53763308,1.41111557,-4.540358276,-1.560504913,5.004125899
12.54758008,0.276774445,-4.974754944,0.239951019,4.988222864
12.55752708,-1.926044769,-4.258494415,4.231251068,6.304594257
12.56747508,-2.471959534,-3.157833252,6.535708923,7.667984475
12.57742208,-1.950444031,-2.277214508,8.194259949,8.72558502
12.58737008,-1.22625,-0.419577484,10.09485764,10.17771512
12.59731708,0.103883972,3.130739594,12.67174896,13.05318138
12.60726408,1.61469223,7.273524628,18.37219482,19.82546176
12.61721208,3.799698486,8.809031525,30.39459412,31.87268574
12.62715908,6.939868469,5.255570984,47.0540506,47.85254934
12.63710708,9.185348969,-0.032632141,63.5088826,64.16969588
12.64705408,8.16716629,-0.717757416,72.73958725,73.20017305
12.65700208,7.880362701,2.571951599,73.15721878,73.62536052
12.66694908,9.570498047,4.829107819,71.71631516,72.51306485
12.67689608,7.780969391,6.680158539,66.75742722,67.54052185
12.68684408,4.760251007,7.820038147,58.21603912,58.93148732
12.69679108,2.043251038,8.652157745,47.78932159,48.60919632
12.70673908,-0.333356781,8.852590942,36.86563751,37.91509887
12.71668608,-1.53865036,8.247249756,27.28331406,28.54406767
12.72663308,-1.946103058,7.069199524,20.85493195,22.10631325
12.73658108,-0.794847107,5.681136017,17.46897308,18.38673731
12.74652808,1.606908417,4.447401581,14.80002319,15.53712399
12.75647608,3.895499268,3.671564941,11.02412521,12.25506591
12.76642308,5.614973602,3.414250031,5.914949799,8.841474026
12.77637108,6.217470703,3.395089874,0.550704803,7.10541012
12.78631808,6.070925446,2.300565948,-2.832110596,7.083049476
12.79626508,4.897365875,0.034278717,-4.295168152,6.514125958
12.80621308,3.079396362,-2.975662079,-4.888683929,6.498959711
12.81616008,1.637295227,-5.761668549,-4.994214478,7.79870107
12.82610808,0.386645966,-7.0310289,-4.673581238,8.451462837
12.83605508,-0.501157837,-7.302863617,-4.355343018,8.517745534
12.84600308,-1.706451416,-7.716453552,-4.691843262,9.190703186
12.85595008,-2.290087738,-7.942333832,-5.509592743,9.933820048
12.86589708,-1.440155182,-7.612120514,-5.74161026,9.642847818
12.87584508,-0.908760223,-7.066505127,-5.666167145,9.103119793
12.88579208,-0.546962585,-6.622378693,-5.738167419,8.779614624
12.89574008,-0.097297668,-6.268514557,-6.103258209,8.749485834
12.90568708,-0.127684479,-5.818250885,-6.509363708,8.731561291
12.91563508,-0.556093597,-5.304968262,-6.832541656,8.668076709
12.92558208,-1.251846771,-5.098547516,-7.215146027,8.923039801
12.93552908,-2.00672699,-4.946014709,-8.051157532,9.659769786
12.94547708,-2.408641205,-4.796625366,-8.827742615,10.33141844
12.95542408,-2.161654816,-4.579127655,-9.575886841,10.83230218
12.96537208,-1.524729309,-4.099375305,-10.52940399,11.40166768
12.97531908,-1.420695648,-3.514092407,-10.71726334,11.36780344
12.98526708,-0.75937088,-3.164419556,-10.21984772,10.72545955
12.99521408,0.406404877,-2.824925537,-9.539512482,9.957292182
13.00516108,1.53161499,-2.488574982,-8.49363739,8.982245044
13.01510908,2.649190979,-2.229912872,-7.279362488,8.061007536
13.02505608,3.432062988,-2.151176605,-5.640720062,6.944374699
13.03500408,3.035687256,-2.442470856,-4.009562073,5.59085405
13.04495108,2.274071045,-3.046315155,-3.479664001,5.153590661
13.05489808,1.769769745,-3.589984589,-3.147055664,5.091564951
13.06484608,1.137484589,-4.143683167,-2.586321716,5.015280789
13.07479308,0.323776703,-4.858895874,-1.813478851,5.196383936
13.08474108,-0.513731689,-5.080285492,-0.353115692,5.118389553
13.09468808,-0.918789368,-4.809199219,1.980830841,5.281691192
13.10463608,-0.895288239,-4.052073669,4.499044189,6.120640544
13.11458308,-1.57023468,-2.772983551,6.183641052,6.956471188
13.12453008,-2.706521759,-0.890198822,6.772815857,7.347703628
13.13447808,-3.785777435,1.542392578,7.848628693,8.849410037
13.14442508,-4.93778183,4.696184235,10.01582199,12.11414569
13.15437308,-5.408403168,7.929310913,15.14819916,17.93300683
13.16432008,-3.644321594,10.30157776,25.36400528,27.6176818
13.17426808,1.925296326,11.22216339,40.80020554,42.35918423
13.18421508,10.96889008,9.517208862,59.76367081,61.50276549
13.19416208,16.89536591,8.759783936,73.33295334,75.76218878
13.20411008,16.01579498,9.663005676,76.04052292,78.30734636
13.21405708,12.31189728,8.306676178,73.58353226,75.0674357
13.22400508,7.628286896,7.076983337,67.90853348,68.70111624
13.23395208,2.306403809,7.00767746,59.05309845,59.51214564
13.24389908,-3.327580261,6.764732666,48.24766846,48.8331026
13.25384708,-7.475005646,6.721322937,37.853134,39.1651841
13.26379408,-9.210796051,6.802603912,29.83296204,31.95496531
13.27374208,-9.380243683,5.708529053,24.51871307,26.86528552
13.28368908,-8.610244904,4.080963593,20.47921326,22.58735834
13.29363708,-6.140979767,3.583547974,15.93406494,17.44843472
13.30358408,-2.787653046,3.5208284,10.50889664,11.4282173
13.31353108,-0.192499695,3.501518555,5.312901764,6.365894554
13.32347908,1.535357208,3.388653259,0.859812012,3.818320228
13.33342608,2.279759216,2.82926651,-2.374512177,4.340548254
13.34337408,2.698139191,1.789378967,-3.748055878,4.95275227
13.35332108,2.845881958,0.151335297,-3.698957977,4.669500681
13.36326888,2.723586273,-1.84985321,-2.72747818,4.275396626
13.37321588,2.099683685,-3.834725647,-1.444047089,4.604244168
13.38316287,1.131197662,-5.417384491,-0.526155853,5.559181851
13.39311088,0.325423279,-6.114035797,0.136216736,6.124205176
13.40305788,-0.297880554,-6.144721985,-0.050894165,6.152148512
13.41300587,-0.60264679,-5.781726837,-0.91145462,5.884071541
13.42295288,-0.338446198,-5.151237946,-1.676513672,5.427752416
13.43290088,0.509540405,-4.365821228,-2.181563416,4.907060765
13.44284788,1.520987091,-3.682641907,-3.01877243,4.998823875
13.45279488,2.001637573,-3.1147229,-4.654271393,5.947292991
13.46274288,1.231788483,-2.661315765,-6.708449707,7.32142076
13.47268988,0.459095306,-2.342927856,-8.413254547,8.745452048
13.48263788,-0.497415619,-1.899400177,-10.4324057,10.61556555
13.49258488,-1.507664795,-1.774559784,-11.98617462,12.21026198
13.50253288,-1.324296112,-1.860331421,-12.12613358,12.33927505
13.51247988,-0.848884735,-1.884580994,-10.60634399,10.80586802
13.52242688,-0.494122467,-1.61708725,-8.67850296,8.841693379
13.53237488,-0.163460083,-1.134191437,-7.091353455,7.183342066
13.54232187,0.578247528,-0.651295624,-6.176755371,6.237857253
13.55226988,1.3549823,-0.422720947,-5.810916138,5.981756965
13.56221688,1.660197601,-0.331859894,-5.688620453,5.935216064
13.57216487,1.575773163,-0.385149078,-5.51572998,5.749319794
13.58211188,1.296304321,-0.688268738,-5.096002808,5.303146553
13.59205888,0.752634888,-1.041833496,-4.133803711,4.328996353
13.60200687,-0.143551483,-1.341360626,-2.24428299,2.61852277
13.61195388,-0.187110901,-1.659898224,-1.74222702,2.413633691
13.62190188,-0.409847717,-1.768123169,-0.927171936,2.038107576
13.63184887,-0.702189789,-1.778302002,-0.096249847,1.91433867
13.64179688,-0.641865234,-1.831441498,0.628243561,2.039818352
13.65174388,-0.395776978,-1.778751068,1.251697083,2.210732993
13.66169087,-0.102387085,-1.601220245,1.84401535,2.44433672
13.67163888,0.220341797,-1.265468445,2.49935257,2.810111058
13.68158588,0.533191223,-0.996477814,3.358266449,3.543333805
13.69153387,0.820144501,-0.617016907,4.685855713,4.796935545
13.70148088,0.937350769,0.226329346,6.843768311,6.911368614
13.71142888,0.688867493,1.367256775,10.08318192,10.19874929
13.72137588,0.364492035,2.858755188,14.461577,14.74593316
13.73132288,0.949325867,4.685855713,19.14084641,19.72892456
13.74127088,2.868035889,6.095474396,24.84832764,25.74528742
13.75121788,7.6043367,5.951922913,31.9196228,33.34836792
13.76116588,12.24798019,4.478686523,40.9400148,42.9669229
13.77111288,14.29108154,1.286724243,50.90808609,52.8916241
13.78106088,15.15777924,-1.724414063,57.65784988,59.64192761
13.79100787,15.88391922,-3.410507813,59.09965164,61.29191853
13.80095488,17.29129257,-5.414390717,57.66174179,60.44154938
13.81090288,17.26509705,-6.334527283,56.99218414,59.88588202
13.82084987,14.62174393,-4.849016418,55.31103012,57.41618595
13.83079788,11.02487366,-2.721939697,49.38994308,50.67862738
13.84074488,7.537126465,-0.074395294,40.71997238,41.41171285
13.85069287,4.843627625,3.432811432,31.9528537,32.49968896
13.86063988,2.743943939,5.44328064,23.45292938,24.23217756
13.87058688,1.821562042,5.859564972,16.68984329,17.78211065
13.88053487,2.13186676,5.329068146,13.47572708,14.64715138
13.89048188,2.412383423,3.296295319,11.11678253,11.84347966
13.90042988,2.284399567,1.21921463,8.138276367,8.540287344
13.91037687,1.880988464,-0.195942535,4.882397003,5.235867796
13.92032488,1.264570313,-1.107995911,1.496138763,2.250605299
13.93027188,0.21884491,-1.519340515,-1.481169891,2.133108751
13.94021887,-0.770298157,-2.037712555,-3.594026184,4.202696268
13.95016688,-1.209335175,-2.741997986,-4.783452759,5.644684651
13.96011388,-2.080972595,-3.870052185,-6.015989685,7.449824343
13.97006187,-1.607207794,-4.751868439,-6.119424591,7.912694097
13.98000888,-1.169667664,-4.298311615,-5.709127808,7.241391131
13.98995688,-1.628613281,-3.435805206,-5.14959137,6.401205348
13.99990388,-1.664538574,-2.837948456,-4.746928711,5.775636094
14.00985088,-1.592687988,-2.345472565,-5.400170288,6.099158608
14.01979888,-1.534758453,-1.913470917,-6.76308609,7.194177362
14.02974588,-1.07057373,-1.256487122,-8.021968231,8.190046538
14.03969388,-0.634680176,-0.731079712,-9.089099121,9.140515265
14.04964088,0.076490936,-0.459694061,-9.609716492,9.621009331
14.05958888,0.544567566,-0.559686127,-9.73515564,9.766425023
14.06953587,0.531993713,-0.952768707,-9.261839905,9.325902849
14.07948288,0.334105225,-1.490899658,-8.464747467,8.601532292
14.08943088,-0.114511871,-2.042502594,-7.080276489,7.369887718
14.09937787,-1.129551086,-2.452050934,-4.565206604,5.303729893
14.10932588,-1.252295837,-2.741698608,-4.106111298,5.093653513
14.11927288,-1.315614166,-2.90530838,-2.988235931,4.370493267
14.12922087,-1.352138214,-2.91114624,-2.157912598,3.86776899
14.13916788,-0.971779175,-2.844235382,-1.781295776,3.493858085
14.14911488,-0.563428345,-2.646047516,-1.509910126,3.098200695
14.15906287,-0.021555176,-2.340682526,-1.376387787,2.715456251
14.16900988,0.659079437,-2.038161621,-0.975671082,2.353810221
14.17895788,1.10575058,-1.798060913,-0.168699188,2.117585136
14.18890487,1.531914368,-1.557810516,1.008003845,2.406160216
14.19885288,1.607507172,-1.370100861,2.350412292,3.160014813
14.20879988,1.208287354,-1.363963623,3.494932251,3.941434578
14.21874688,0.670006714,-1.482816467,4.244124298,4.545354192
14.22869488,0.514180756,-1.26367218,4.688400421,4.882862658
14.23864188,0.755478973,-0.742156677,5.345533905,5.449429121
14.24858988,1.32923584,0.084873505,6.033203888,6.178480443
14.25853688,1.838626556,1.585353241,7.394173737,7.782525153
14.26848488,1.357976074,3.131787415,9.165739746,9.780745193
14.27843188,0.107177124,4.199816437,10.98086517,11.75709764
14.28837888,-1.376986542,4.936734009,12.93325516,13.91174049
14.29832688,-2.862946472,5.664670258,14.3446701,15.68612483
14.30827388,-4.073628845,7.19838089,15.36644531,17.45103954
14.31822188,-4.545597382,9.416618042,17.04655151,19.99800164
14.32816888,-3.006198578,11.29446304,21.96906509,24.88457246
14.33811688,0.523461456,12.11730194,31.20934982,33.48322766
14.34806387,5.607189789,10.70004913,43.03969849,44.7028777
14.35801088,10.96305222,8.380921783,54.10798187,55.83996836
14.36795883,12.21130646,6.178851013,60.7020694,62.22568147
14.37790583,11.26692032,4.289180603,62.69742004,63.84596341
14.38785383,11.23383911,3.092119904,62.49384338,63.57075434
14.39780083,9.992320862,2.892734528,59.09710693,60.00568671
14.40774883,6.506369934,3.792513428,49.95307205,50.51757531
14.41769583,2.266287231,5.11800705,37.82633972,38.23822735
14.42764283,-1.58774826,6.806196442,28.2143779,29.06710124
14.43759083,-3.802692261,8.055498505,23.10909439,24.76654534
14.44753783,-3.629352722,7.768096161,20.91091553,22.60048467
14.45748583,-2.062710571,5.65733551,18.85254593,19.79087436
14.46743283,-0.276325378,3.845203857,14.7335614,15.22956926
14.47738083,1.576521606,3.056344299,9.123377838,9.750009437
14.48732783,3.352877655,2.793939972,3.75943222,5.760314206
14.49727483,4.137096863,2.338137817,-0.518072662,4.780257126
14.50722283,3.774999847,1.27774292,-3.873944092,5.557939694
14.51716983,2.864443359,-0.255818024,-6.191724243,6.826999907
14.52711783,1.635199585,-1.836830292,-7.45584549,7.850952501
14.53706483,0.477956085,-3.136278076,-7.846982117,8.464030395
14.54701283,-0.141006775,-4.018543396,-7.62783783,8.622788638
14.55695983,-0.413440247,-4.413422241,-7.143744507,8.40727746
14.56690783,-0.538879395,-4.580774231,-6.460864563,7.938302996
14.57685483,-0.625698853,-4.523742828,-5.937552795,7.490679637
14.58680183,-0.67045578,-4.191433868,-5.749394073,7.14654889
14.59674983,-0.603395233,-3.605701904,-5.880072327,6.923902267
14.60669683,-0.462538147,-3.02236496,-6.267167358,6.973235848
14.61664483,-0.11585907,-2.656825104,-6.945556641,7.437264282
14.62659183,0.176183624,-2.525398407,-7.552394714,7.96538409
14.63653983,0.047002258,-2.526595917,-8.115972748,8.500288806
14.64648683,-0.18950592,-2.590363312,-8.599766693,8.983422608
14.65643383,-0.308508453,-2.670446777,-8.784931641,9.187028213
14.66638183,-0.474513245,-2.760110321,-8.382268982,8.83774887
14.67632883,-0.617915039,-2.936593323,-7.657775574,8.224775138
14.68627683,-0.706231384,-3.224594421,-6.826853485,7.583053505
14.69622383,-0.884510651,-3.613934784,-6.193370819,7.225006977
14.70617183,-1.086141357,-3.879033508,-5.700146484,6.979847703
14.71611883,-1.184486847,-4.038901062,-5.044360199,6.569726075
14.72606583,-1.146615601,-4.20056488,-4.415368195,6.201205443
14.73601383,-0.812360687,-4.321962433,-3.9853125,5.934812961
14.74596083,0.049696655,-4.209097137,-3.558999023,5.512299204
14.75590883,0.964444427,-3.81915802,-3.047812042,4.980489863
14.76585583,1.546733551,-3.434907074,-2.380350037,4.456123605
14.77580383,1.718576202,-3.301833801,-1.561702423,4.036647752
14.78575083,1.309776306,-3.434008942,-0.32766861,3.68989134
14.79569883,0.644110565,-3.711980896,0.872385864,3.867135592
14.80564583,0.03622467,-3.974534912,2.026336212,4.461421123
14.81559283,-0.441432037,-4.215384064,3.069965973,5.233451645
14.82554083,-0.67749115,-4.155059509,3.986060944,5.797602576
14.83548783,-0.917591858,-3.436104584,5.422324219,6.484627164
14.84543583,-0.718805237,-1.944755859,6.725963287,7.038276669
14.85538283,0.100890198,-0.067958679,7.95535675,7.956286712
14.86533083,0.986149292,2.436483307,9.673633575,10.02437668
14.87527783,1.259480896,5.407205658,13.03339691,14.16663687
14.88522483,0.621058502,7.471263428,19.21164917,20.6226321
14.89517283,1.199455719,7.995323639,27.3822583,28.55086625
14.90511983,3.816763,7.348967743,36.94557129,37.86225356
14.91506783,8.062982941,5.881569214,49.9192424,50.90712438
14.92501483,12.19603821,4.567451935,62.82495483,64.16057914
14.93496283,14.45304474,4.313280487,66.3688353,68.06112833
14.94490983,14.08645706,4.61250824,62.85788635,64.58186573
14.95485683,10.97532669,5.383854218,61.41368958,62.61856713
14.96480483,9.105864258,5.252577209,60.11828339,61.03043772
14.97475183,8.06418045,5.227279816,55.77222107,56.59413489
14.98469983,6.229146423,6.284980316,46.72683105,47.55733364
14.99464683,4.108805695,8.138725433,35.91795822,37.05699473
15.00459483,2.075883179,9.261540527,26.85685089,28.48466015
15.01454183,0.708626404,8.714428253,20.6378833,22.41351464
15.02448983,1.065484314,7.416926422,16.12851059,17.78411955
15.03443683,2.253713379,6.440357208,11.9227066,13.73711606
15.04438383,3.526516571,5.286556549,7.030579834,9.476974838
15.05433183,3.710484009,4.42180481,1.764231262,6.03593914
15.06427883,2.597398682,3.040177917,-1.812880096,4.39040954
15.07422683,0.907562714,0.855021973,-3.953877869,4.145827162
15.08417383,-0.653091888,-1.478625183,-4.774172058,5.040394854
15.09412183,-1.790127411,-3.368295593,-4.656816101,6.019626861
15.10406883,-2.535876617,-4.794080658,-3.86945343,6.662323125
15.11401583,-2.473755798,-6.038592682,-3.332969055,7.327533831
15.12396383,-1.983375549,-6.669830017,-3.002905426,7.57877642
15.13391083,-1.184786224,-6.417005768,-2.475252686,6.979151616
15.14385883,-0.545166321,-5.911656647,-2.767894135,6.550276984
15.15380583,-0.329614563,-5.518873444,-4.182153168,6.93231671
15.16375383,-0.709524536,-4.916226654,-6.130800934,7.890464478
15.17370083,-1.358125763,-4.255949707,-7.995323639,9.158756116
15.18364883,-1.873653717,-3.887266388,-9.398505707,10.3418242
15.19359583,-1.952090607,-3.689078522,-10.14859589,10.97332933
15.20354283,-1.787283325,-3.519930267,-10.24978546,10.9837331
15.21349083,-1.594933319,-3.425925751,-9.875114594,10.57348891
15.22343783,-1.405726776,-3.354823608,-9.136251068,9.83371714
15.23338583,-1.056952057,-3.31021637,-8.050409088,8.768338871
15.24333283,-0.67868866,-3.255879364,-6.877148895,7.63914561
15.25328083,-0.64470932,-3.157533875,-5.965694275,6.780499868
15.26322783,-0.766705627,-3.089126129,-5.317392426,6.19719291
15.27317483,-0.907413025,-3.022963715,-4.710704041,5.670312211
15.28312283,-0.942290497,-2.960094452,-4.216431885,5.237209981
15.29306983,-0.712518311,-2.856659546,-3.73488327,4.755790065
15.30301783,-0.408500519,-2.714455261,-3.165467377,4.189907368
15.31296483,-0.027243347,-2.611768799,-2.642754364,3.715673437
15.32291283,0.236957245,-2.482737122,-2.33319809,3.41525192
15.33285983,0.476159821,-2.178569641,-2.274969177,3.185651992
15.34280783,0.875978394,-1.696272583,-2.138153687,2.866422859
15.35275483,1.41815094,-1.082099762,-1.834285583,2.558651126
15.36270121,1.787283325,-0.565673676,-1.348395996,2.309229342
15.37264921,1.994901581,-0.296683044,-0.756377106,2.154010091
15.38259621,2.022893372,-0.152832184,0.079484711,2.030215035
15.39254421,1.366807709,-0.028291168,1.639690247,2.134841401
15.40249121,-0.164507904,0.29832962,3.581302643,3.597470227
15.41243921,-1.350341949,0.592767334,5.206473083,5.411299147
15.42238621,-2.024989014,0.887803802,6.825506287,7.174699448
15.43233421,-1.855990448,1.618434448,7.755971375,8.137513291
15.44228121,0.291593628,3.910767517,7.539072418,8.498043442
15.45222821,4.52359314,8.341403961,9.572593689,13.47874122
15.46217621,8.754095764,11.26003464,19.39007813,24.07068139
15.47212321,11.22366028,8.036637726,36.14623352,38.69248368
15.48207121,11.14222961,-1.302441559,53.85860046,55.01449335
15.49201821,6.190826111,-9.267977142,66.68617538,67.61115082
15.50196621,1.140178986,-10.29888336,66.26240662,67.06767878
15.51191321,2.547702026,-6.093977509,60.05900665,60.42111905
15.52186021,3.837719421,-1.107546844,56.01292053,56.1551602
15.53180821,1.108295288,0.313298492,54.11337067,54.12562572
15.54175521,-3.6190242,-0.398621063,51.53872467,51.66716922
15.55170321,-6.732998657,-0.397423553,44.68582535,45.19197056
15.56165021,-6.793622589,1.667682037,35.63145401,36.31163706
15.57159821,-5.189857635,4.976251831,27.66217621,28.58135226
15.58154521,-2.369722137,7.712861023,22.0392691,23.46983576
15.59149221,0.083526306,9.259444885,19.27856003,21.38707958
15.60144021,1.704056396,9.479487305,16.72591827,19.30079868
15.61138721,2.885100403,9.294621735,12.30067062,15.68503412
15.62133521,2.745291138,8.428373108,8.342601471,12.17263718
15.63128221,1.165027313,6.162534943,5.751789093,8.509829806
15.64123021,-0.899479523,3.106190643,4.46850769,5.5158902
15.65117721,-3.014431458,-0.192649384,4.262386322,5.224160024
15.66112521,-4.485871582,-2.853366394,4.28483963,6.828220433
15.67107221,-4.743186493,-4.189487915,3.690126343,7.325753171
15.68101921,-3.819906464,-4.547992401,2.369123383,6.394424593
15.69096721,-2.387385406,-4.799768829,0.809516602,5.421504129
15.70091421,-0.652642822,-4.90619751,-0.211510162,4.953933105
15.71086221,1.303339691,-4.790488129,-0.840352478,5.035242114
15.72080921,2.373015289,-4.792134705,-1.689835968,5.608146056
15.73075721,2.134860535,-4.699178009,-2.883004761,5.911989506
15.74070421,1.479523315,-4.387675781,-4.463268585,6.431287155
15.75065221,0.82493454,-4.085005188,-6.228697357,7.49429484
15.76059921,0.1685495,-3.71153183,-7.879015503,8.711071275
15.77054621,-0.264949036,-3.205284576,-9.119934998,9.670432336
15.78049421,-0.267044678,-2.818937988,-9.632319489,10.03988561
15.79044121,0.189954987,-2.654729462,-9.490264893,9.856409039
15.80038921,0.42002655,-2.429298248,-9.11843811,9.44583643
15.81033621,0.569565582,-2.115251312,-8.677604828,8.949833441
15.82028421,0.6330336,-1.864373016,-8.00924469,8.247703849
15.83023121,0.389490051,-1.791624298,-7.383994904,7.608219296
15.84017821,0.088166656,-1.806892548,-7.005731506,7.23553094
15.85012621,-0.299227753,-1.791773987,-6.807992706,7.046187335
15.86007321,-0.540376282,-1.648222504,-6.892866211,7.107759742
15.87002121,-0.253423004,-1.407523041,-6.957531738,7.102998819
15.87996821,0.576002197,-1.212778015,-6.79467041,6.92604902
15.88991621,1.593586121,-1.05425766,-6.312073975,6.594941531
15.89986321,2.13426178,-1.14781311,-5.463338928,5.976673032
15.90981121,1.99026123,-1.644180908,-4.585863647,5.262567436
15.91975821,1.590442657,-2.313888245,-3.622167664,4.58297777
15.92970521,1.424288177,-2.77433075,-2.517764282,4.008072467
15.93965321,1.343755646,-2.992277527,-1.432970123,3.579498206
15.94960021,1.197060699,-3.196303253,-0.260308685,3.423020511
15.95954821,0.788260803,-3.347189484,1.182091827,3.63625819
15.96949521,-0.130528564,-2.983146515,3.006348267,4.237255094
15.97944321,-0.501008148,-1.613943787,5.260510712,5.52528702
15.98939021,0.263152771,0.729732513,7.794141998,7.832650153
15.99933821,1.473984833,3.618425446,10.75708054,11.44466756
16.00928521,1.470991058,6.313121796,13.52662125,14.99962679
16.01923221,0.902922363,7.892487488,15.87164474,17.74868261
16.02918021,1.260379028,7.921826477,19.41851898,21.01006353
16.03912721,2.639910278,6.329737244,26.57633423,27.44697143
16.04907521,4.270918579,3.509002991,37.561241,37.96578292
16.05902221,4.929399261,0.340841217,49.39967285,49.64617636
16.06897021,4.666695557,-1.45213028,56.70523087,56.91546308
16.07891721,3.252286835,-0.372724915,58.17098282,58.26302031
16.08886521,2.248474274,0.916693726,59.89943848,59.94863379
16.09881221,2.582579498,0.7020401,62.8638739,62.92081706
16.10875921,2.474204865,0.819845123,62.52857117,62.58287344
16.11870721,2.222877502,1.073417816,55.99391006,56.04829502
16.12865421,2.177671509,1.758393402,45.66793304,45.75362619
16.13860221,2.417472839,3.419638824,34.10253342,34.35870909
16.14854921,3.332519989,5.250631256,25.19635391,25.95247712
16.15849721,3.97004425,6.220614166,19.82911514,21.15776688
16.16844421,3.925886078,6.105802917,15.77195206,17.36225453
16.17839221,3.53834198,5.498665466,10.94089828,12.74591861
16.18833921,2.635718994,4.449646912,4.939129028,7.151319306
16.19828621,1.392254791,3.075654144,-0.07843689,3.377006687
16.20823421,1.256038055,1.700763245,-3.711232452,4.271237938
16.21818121,1.485810242,0.602048035,-5.987997894,6.198888021
16.22812921,0.394130402,-0.520317993,-5.903872833,5.939847138
16.23807621,-0.693507843,-2.062261505,-5.059029694,5.50705521
16.24802421,-0.706830139,-3.464695129,-4.144132233,5.447710817
16.25797121,-0.528101807,-4.172423401,-3.175945587,5.270164981
16.26791921,-0.747994537,-4.553680573,-3.093317413,5.555548146
16.27786621,-0.480351105,-4.190685425,-3.836821289,5.702085506
16.28781321,0.144449615,-3.45286972,-5.477110291,6.476257572
16.29776121,0.206720123,-2.822680206,-7.222630463,7.757360863
16.30770821,0.192948761,-2.379002838,-8.347990265,8.682501091
16.31765621,0.34054184,-2.097737732,-8.839717712,9.091594006
16.32760321,0.50669632,-1.836381226,-9.058862,9.25699832
16.33755121,0.407602386,-1.59717865,-9.183552704,9.330314015
16.34749821,0.232167206,-1.560205536,-8.980574799,9.118051691
16.35744521,0.161813507,-1.72007309,-8.101602631,8.283767273
16.36739308,-0.123792572,-1.945653992,-6.847510529,7.119641458
16.37734008,-0.579744415,-2.088457031,-5.789211273,6.181644079
16.38728808,-0.698297882,-2.031425629,-5.124293976,5.556320614
16.39723508,-0.176483002,-1.769320679,-4.375101929,4.722622026
16.40718308,0.609532471,-1.283281403,-3.367996216,3.655371322
16.41713008,1.123114471,-0.904718628,-2.557581482,2.936175224
16.42707808,1.199605408,-0.845142517,-2.150877228,2.603764939
16.43702508,0.999621277,-0.992585907,-1.761836243,2.255778452
16.44697308,0.531844025,-1.343456268,-1.175655212,1.86276622
16.45692008,-0.057929535,-1.915117493,-0.572709045,1.999756608
16.46686708,-0.539927216,-2.462229767,-0.409997406,2.553858785
16.47681508,-0.784967651,-2.695744171,-0.391585693,2.834880986
16.48676208,-0.564775543,-2.80935791,0.005239105,2.865569879
16.49671008,-0.079335022,-2.834206238,0.681532745,2.916077147
16.50665708,0.447718964,-2.537223816,1.625469818,3.046327148
16.51660508,1.312321014,-2.09564209,2.771786041,3.714390942
16.52655208,2.195634155,-1.639690247,3.99354538,4.843325113
16.53649908,2.610271912,-0.913250885,5.640121307,6.281601308
16.54644708,1.782193909,-0.14040802,7.630232849,7.836860524
16.55639408,0.280067596,0.526155853,9.124126282,9.143574697
16.56634208,-1.090182953,1.316063232,10.49153275,10.62980624
16.57628908,-2.396217041,2.341580658,11.89456512,12.35740813
16.58623708,-3.174897766,3.856879578,13.48530716,14.38085551
16.59618408,-2.045196991,5.244194641,16.52353912,17.45599477
16.60613208,1.535057831,5.938750305,22.81525543,23.62543202
16.61607908,5.429808655,5.3694841,32.30462219,33.19492125
16.62602708,7.615862732,2.649190979,42.69376785,43.44856029
16.63597408,7.764503632,-1.836381226,50.89910477,51.52066264
16.64592108,6.605463867,-4.586612091,52.7353363,53.34496095
16.65586908,5.591472473,-3.912264404,49.0167691,49.48953456
16.66581608,7.163802795,-1.97514267,48.05980911,48.63092135
16.67576408,10.09276199,-0.000898132,50.19916031,51.20370632
16.68571108,10.03198837,1.776505737,49.16765533,50.21210108
16.69565908,8.068072357,2.53318222,43.99965225,44.8049127
16.70560608,7.093299408,3.538791046,38.97924225,39.77711987
16.71555308,7.902217255,6.011349335,34.99767197,36.37881803
16.72550108,9.395511932,7.916587372,31.29407364,33.61944445
16.73544808,10.03842499,7.970026245,28.05959976,30.84854021
16.74539608,9.34312088,6.694378967,25.45576447,27.93035199
16.75534308,6.744375,4.581971741,21.96188004,23.42659245
16.76529108,3.791166229,2.283351746,17.34413269,17.89987641
16.77523808,1.729204102,0.354612579,13.09132645,13.20979656
16.78518608,0.347427521,-1.253792725,9.063652039,9.156554502
16.79513308,-0.136516113,-2.48647934,4.734354858,5.349330059
16.80508008,-0.568817139,-3.140768738,-0.080233154,3.192869957
16.81502808,-0.896186371,-3.472029877,-5.272635498,6.376427414
16.82497508,-0.970881042,-4.325255585,-9.614656219,10.58735378
16.83492308,-0.912801819,-5.478158112,-11.85893921,13.09495562
16.84487008,-0.752934265,-5.868995361,-12.49421814,13.82452543
16.85481808,-1.479822693,-5.954916687,-12.96528854,14.34397487
16.86476508,-3.555556183,-6.08798996,-13.48575623,15.21746439
16.87471308,-5.553750916,-5.887407074,-14.34257446,16.46861116
16.88466008,-6.461463318,-5.434748383,-14.96303421,17.18078552
16.89460808,-6.227799225,-4.794230347,-15.4129985,17.30117484
16.90455508,-4.389771423,-3.586841125,-15.87239319,16.85432846
16.91450208,-2.681673431,-2.247426453,-15.51224213,15.90194811
16.92445008,-2.023192749,-1.750310211,-14.10621597,14.35765384
16.93439708,-1.730251923,-1.92484726,-11.98258209,12.25891848
16.94434508,-1.57023468,-2.154769135,-9.459279327,9.827849834
16.95429208,-1.593436432,-2.215393066,-7.124734039,7.629471884
16.96424008,-1.346000977,-2.04175415,-5.009333038,5.574396481
16.97418708,-1.03315155,-1.769320679,-3.154240723,3.761267383
16.98413508,-1.060993652,-1.774110718,-1.630110168,2.632572037
16.99408208,-1.080453186,-1.843566284,-0.626447296,2.226780624
17.00402908,-0.60025177,-1.468895416,0.055684204,1.587783569
17.01397708,0.262254639,-0.857117615,0.906963959,1.275151647
17.02392408,1.176553345,-0.34518219,1.672771454,2.074028171
17.03387208,1.227597198,-0.16375946,1.749412079,2.143421252
17.04381908,0.715512085,-0.431702271,1.512305145,1.727828477
17.05376708,0.487236786,-0.746048584,2.159110107,2.335753547
17.06371408,0.399668884,-0.890049133,3.883075104,4.003772588
17.07366208,0.304317169,-0.914448395,5.643414459,5.725115856
17.08360908,0.614023132,-0.770597534,7.023544464,7.092321327
17.09355608,1.296903076,-0.415086823,8.150101776,8.263075313
17.10350408,1.835932159,0.190104675,9.367520142,9.54762904
17.11345108,2.208806763,0.865350494,11.34520752,11.59057343
17.12339908,2.144590302,2.026186523,14.43642929,14.73482915
17.13334608,1.459465027,3.774401093,16.89431808,17.37222281
17.14329408,0.258512421,5.549110565,17.6213562,18.47624559
17.15324108,-0.819246368,7.295977936,17.30042358,18.79380523
17.16318908,-0.735570374,8.970845032,17.37257355,19.56587427
17.17313608,1.616338806,9.414971466,19.80800903,21.99116779
17.18308308,5.559439087,7.967331848,25.15698578,26.96775247
17.19303108,7.317533112,6.21432724,32.59891022,33.98312966
17.20297808,6.849306793,4.97056366,37.79505478,38.73093947
17.21292608,5.728587341,3.796405334,37.06038254,37.6921923
17.22287308,4.51536026,2.643951874,33.76723068,34.17023307
17.23282108,5.324427795,1.94116333,34.89274017,35.34997826
17.24276808,8.76277771,1.398691406,40.41819992,41.38083488
17.25271608,11.22919876,1.007255402,45.75490219,47.12346064
17.26266308,11.55596924,0.702189789,46.22447571,47.65223657
17.27261008,10.09830048,1.415606232,40.92774033,42.17889925
17.28255808,8.081544342,3.261118469,34.10657501,35.20233958
17.29250508,6.848857727,4.619992676,28.87240952,30.03110414
17.30245308,6.034251709,5.203928375,25.20204208,26.43172316
17.31240008,5.238207092,5.260959778,21.50532944,22.75072978
17.32234808,4.102967834,5.046006775,17.26060638,18.44519076
17.33229508,2.702031097,4.428241425,13.48875,14.4518743
17.34224308,1.333427124,3.503614197,10.23496628,10.89990252
17.35219008,0.329015808,2.463427277,6.88358551,7.318502226
17.36213808,-0.411344604,1.108145599,2.872376862,3.106081114
17.37208558,-0.59561142,0.029189301,-1.443448334,1.561777215
17.38203258,-0.4552034,-1.003363495,-5.116210785,5.233503724
17.39198058,-0.538580017,-1.871109009,-7.44057724,7.691118711
17.40192758,-0.343385925,-2.380050659,-8.761430511,9.085439981
17.41187558,-0.095202026,-2.767744446,-9.649084625,10.03864069
17.42182258,-0.296383667,-3.337609406,-10.47386948,10.99679142
17.43177058,-1.657652893,-4.354145508,-10.43524979,11.4280722
17.44171758,-1.240919495,-3.409759369,-11.08744354,11.6660938
17.45166558,-1.324894867,-2.678529968,-12.52071304,12.87237835
17.46161258,-1.481618958,-2.601739655,-13.30388443,13.63662659
17.47155958,-1.386865997,-2.275268555,-13.3308284,13.59452942
17.48150758,-1.174158325,-2.176473999,-12.92427383,13.1587439
17.49145458,-0.688418427,-2.027234344,-12.09290268,12.28095657
17.50140258,-0.32407608,-1.748963013,-11.04238724,11.18473124
17.51134958,-0.119750977,-1.64043869,-9.867779846,10.00392216
17.52129758,-0.01871109,-1.757195892,-8.563092957,8.74154726
17.53124458,-0.029338989,-1.699865112,-7.202871552,7.400794604
17.54119258,-0.038320313,-1.48251709,-5.91599762,6.09904527
17.55113958,0.064815216,-1.50242569,-4.858297119,5.085718716
17.56108658,0.19893631,-1.741478577,-3.910617828,4.285470229
17.57103458,0.126486969,-2.002535706,-3.116519165,3.706594112
17.58098158,-0.182470551,-2.344574432,-2.429447937,3.381204231
17.59092958,-0.50549881,-2.739004211,-1.835932159,3.33591367
17.60087658,-0.625399475,-3.109184418,-1.289119263,3.423445738
17.61082458,-0.755029907,-3.243305511,-0.588875427,3.38169707
17.62077158,-0.781973877,-3.165467377,0.012274475,3.260646795
17.63071958,-0.525856476,-3.173550568,0.390537872,3.240442573
17.64066658,-0.12633728,-3.098556519,0.835263062,3.211647239
17.65061458,0.277073822,-2.901566162,1.401984558,3.234411352
17.66056158,0.473465424,-2.614163818,1.974244537,3.309934058
17.67050858,-0.079634399,-2.201322327,2.66775238,3.459633562
17.68045658,-1.459015961,-1.790127411,3.771407318,4.422306737
17.69040358,-2.124382324,-1.668430481,5.601651306,6.21893543
17.70035158,-1.784738617,-1.586850128,8.180638275,8.522102314
17.71029858,-0.346828766,-1.261875916,11.78963333,11.86204346
17.72024658,3.874542847,-0.416883087,16.21083939,16.67264788
17.73019358,11.52947433,0.229622498,23.03410034,25.75948919
17.74014158,17.69215897,-2.461331635,38.07497269,42.05679716
17.75008858,21.58780792,-9.57124649,63.22237839,67.48860155
17.76003658,21.79153427,-15.77958618,86.68803131,90.76718062
17.76998358,16.23838211,-18.33058136,94.89052414,97.99952468
17.77993058,14.63716187,-18.82081192,83.2284256,86.57621091
17.78987858,16.2996048,-13.94724655,67.31157486,70.64737018
17.79982558,16.98952011,-6.511908417,54.4606485,57.41960449
17.80977358,15.30372574,-1.542542267,43.37634842,46.0227233
17.81972058,10.89928482,0.912801819,34.4610379,36.155093
17.82966858,5.906866608,1.974843292,27.82309158,28.51167313
17.83961558,3.203188934,2.124082947,22.19808884,22.52836647
17.84956358,2.470612335,2.618055725,18.56170074,18.90753489
17.85951058,3.429368591,2.925516357,16.52338943,17.12721849
17.86945758,4.284390564,1.898502045,13.99454819,14.75830924
17.87940558,4.128265228,0.673000488,10.69930069,11.48784308
17.88935258,3.063679047,-0.810414734,7.708220673,8.334240654
17.89930058,1.687890015,-2.695744171,5.857169952,6.665016818
17.90924758,0.131426697,-4.421655121,3.06098465,5.379399038
17.91919558,-1.398392029,-5.786666565,-0.357606354,5.963966172
17.92914258,-2.681224365,-6.998097382,-3.607947235,8.317428347
17.93909058,-3.593128052,-7.641609192,-5.510939941,10.08341308
17.94903758,-3.349584503,-7.743098145,-6.74901535,10.80391102
17.95898458,-2.264940033,-8.18946991,-8.378676453,11.93312993
17.96893258,-0.963995361,-8.358318787,-9.836195526,12.94378316
17.97887958,-0.51956955,-7.848329315,-10.41623932,13.05236634
17.98882758,-0.462837524,-7.21709198,-11.16408417,13.30178223
17.99877458,0.30895752,-6.245462494,-13.18203781,14.58997524
18.00872258,-0.461640015,-5.234614563,-15.34908142,16.22370493
18.01866958,-1.400936737,-4.410129089,-16.81812653,17.4430858
18.02861758,-1.93532547,-3.79805191,-16.83070038,17.36211848
18.03856458,-1.638642426,-3.364104309,-15.50236267,15.94758901
18.04851258,-0.851130066,-2.92985733,-13.57781479,13.91637671
18.05845958,-0.578247528,-2.545157318,-11.53336624,11.82500456
18.06840658,-0.459394684,-2.323019257,-9.722581787,10.00680062
18.07835458,0.064066772,-2.31792984,-8.034093018,8.36203049
18.08830158,0.62599823,-2.398761749,-6.261928253,6.734810848
18.09824958,0.705932007,-2.496059418,-4.852908325,5.502669518
18.10819658,0.344882813,-2.682122498,-3.8963974,4.742851246
18.11814458,-0.059276733,-2.848576355,-3.155887299,4.251767353
18.12809158,-0.130678253,-2.941982117,-2.406096497,3.802845768
18.13803958,-0.015118561,-2.939736786,-1.652563477,3.372424497
18.14798658,0.078586578,-2.878963165,-0.827778625,2.996635148
18.15793458,0.18486557,-2.837349701,-0.116008759,2.845731301
18.16788158,0.787961426,-2.68646347,0.232616272,2.80928452
18.17782858,1.807191925,-2.260149994,-0.025447083,2.893936455
18.18777658,2.023192749,-1.822759552,-0.096998291,2.724916504
18.19772358,1.557960205,-1.772913208,-0.093106384,2.362018214
18.20767158,0.911155243,-2.194137268,-0.293389893,2.393850425
18.21761858,0.450563049,-2.722089386,-0.443827057,2.794594808
18.22756658,0.050594788,-2.738555145,-0.424816589,2.771770779
18.23751358,-0.270487518,-2.187850342,0.671503601,2.304510729
18.24746158,-0.645757141,-1.656006317,2.232457581,2.853633834
18.25740858,-0.683778076,-0.869092712,3.9362146,4.088601225
18.26735658,0.723295898,0.651894379,5.798042908,5.879236753
18.27730358,3.314707031,2.557731171,9.044940948,9.966956818
18.28725058,6.60276947,4.23334671,13.9505397,16.00422904
18.29719858,8.261320496,1.957180023,23.48645966,24.97386148
18.30714558,7.72842865,-4.908891907,39.78696259,40.82680763
18.31709358,6.874005432,-11.39385635,56.93994278,58.47417376
18.32704058,5.405409393,-14.62668365,68.31897995,70.0759684
18.33698858,6.744375,-12.46323257,77.5019339,78.78685498
18.34693558,7.409142609,-11.5086676,84.94879807,86.04442525
18.35688358,2.155667267,-14.19632858,81.54906784,82.80358152
18.36683046,-4.88628891,-14.50887863,71.3188916,72.94359244
18.37677746,-6.120023346,-11.92495193,58.96328522,60.46757948
18.38672546,-2.036215668,-6.535110168,45.62706802,46.13765464
18.39667246,1.557960205,-1.001716919,34.91055313,34.95965384
18.40662046,2.720293121,1.582509155,28.61674118,28.78927241
18.41656746,3.670666809,1.915566559,24.20346863,24.55506228
18.42651546,4.334536285,1.311123505,19.21554108,19.74194186
18.43646246,4.008364563,0.379909973,12.60379028,13.23128291
18.44641046,2.718646545,-1.443448334,4.982389069,5.856516282
18.45635746,1.522483978,-3.40960968,-0.998274078,3.865222732
18.46630546,0.684975586,-4.164938965,-3.467539215,5.46257598
18.47625246,2.584525452,-2.885100403,-6.384223938,7.467388528
18.48619946,4.483476563,-2.223625946,-9.034013672,10.32760754
18.49614746,3.120111694,-2.113005981,-9.828411713,10.52604237
18.50609446,1.895807648,-3.379671936,-10.10982651,10.82704304
18.51604246,0.82253952,-5.49237854,-10.22987686,11.64015352
18.52598946,-0.762813721,-6.442303162,-9.472002869,11.48059202
18.53593746,-1.92364975,-6.730753326,-8.245303802,10.81612239
18.54588446,-3.353027344,-7.081024933,-7.391778717,10.77135549
18.55583246,-4.048331451,-6.985224152,-6.537355499,10.38842437
18.56577946,-3.258573761,-6.357429657,-5.83756073,9.2256344
18.57572746,-1.433568878,-5.413043518,-6.057154083,8.248956022
18.58567446,0.662372589,-4.021387482,-7.023843842,8.120632798
18.59562146,0.86939209,-2.696642303,-9.223968658,9.649317081
18.60556946,-0.526455231,-2.230811005,-11.89321793,12.11207272
18.61551646,-1.85224823,-2.459834747,-13.61388977,13.95777938
18.62546446,-2.330354004,-2.77193573,-13.38007599,13.86147939
18.63541146,-2.160457306,-2.884501648,-11.82301392,12.36008024
18.64535946,-1.678459625,-2.501298523,-9.468709717,9.936306392
18.65530646,-1.07177124,-2.073637848,-7.329657898,7.692369753
18.66525446,-0.618364105,-1.959724731,-5.827232208,6.178958682
18.67520146,-0.206570435,-1.904489594,-4.906646576,5.267345876
18.68514946,0.211360474,-1.833836517,-4.506229248,4.869674697
18.69509646,0.449066162,-1.704355774,-4.54230423,4.872270183
18.70504346,0.66342041,-1.46724884,-4.78330307,5.04707183
18.71499146,0.975371704,-1.247805176,-4.671635284,4.932802849
18.72493846,1.241667938,-1.286724243,-3.918551331,4.307254703
18.73488646,0.78631485,-1.40288269,-2.050436096,2.605889305
18.74483346,0.842597809,-1.497485962,-2.246827698,2.828545559
18.75478146,0.867146759,-1.686243439,-1.670675812,2.52715613
18.76472846,0.762813721,-1.655856628,-0.666114807,1.940993272
18.77467646,1.052910461,-1.192719727,0.604592743,1.701979192
18.78462346,0.613574066,-0.513132935,2.009122009,2.162486946
18.79457146,-0.152383118,0.206121368,2.497256927,2.510378218
18.80451846,-0.487386475,1.092278595,2.868335266,3.10772671
18.81446546,0.642314301,2.400558014,4.483626251,5.126221884
18.82441346,3.043471069,4.434378662,7.170688477,8.9635486
18.83436046,4.952002258,6.631060638,11.63515457,14.27830919
18.84430846,5.306914215,6.681954803,22.80941757,24.35326238
18.85425546,4.74588089,2.593357086,42.02181519,42.36840613
18.86420346,4.660857697,-4.632865906,63.61037155,63.94893596
18.87415046,2.622097321,-9.181906128,79.50671494,80.0780901
18.88409846,0.436941376,-7.198231201,78.63687378,78.9668498
18.89404546,1.966161346,-4.474345551,71.16995132,71.33756044
18.90399346,1.362766113,-4.346511383,68.3156868,68.46738169
18.91394046,-3.994892578,-5.809568939,64.49907349,64.88328551
18.92388746,-9.239087219,-6.666087799,55.38213226,56.54182552
18.93383546,-10.79195801,-5.179678802,43.6646489,45.27578816
18.94378246,-10.1006955,-2.366428986,34.12274139,35.66490594
18.95373046,-8.952882385,-0.018112335,27.41908173,28.84372503
18.96367746,-6.430028687,1.693727875,22.09929428,23.07797198
18.97362546,-2.489772491,3.584446106,17.03233109,17.58259148
18.98357246,1.445693665,5.776637421,12.22238342,13.59581651
18.99352046,3.165317688,5.839656372,6.779851227,9.491427989
19.00346746,2.349214783,3.524720306,0.791254578,4.309123709
19.01341546,1.672921143,0.90801178,-4.36207901,4.759294468
19.02336246,1.92948761,-0.133073273,-6.712491302,6.985568725
19.03330946,3.281775513,0.264350281,-7.008425903,7.743252884
19.04325746,5.499713287,0.881367188,-6.557713165,8.603909363
19.05320446,6.766229553,0.320034485,-6.794071655,9.593940488
19.06315246,6.086044006,-1.189426575,-7.424859924,9.673841642
19.07309946,5.175038452,-2.308798828,-8.302784271,10.05225356
19.08304746,2.758463745,-3.697161713,-8.825347595,9.958156814
19.09299446,0.072299652,-5.225932617,-8.4550177,9.939965959
19.10294246,-2.601440277,-6.211034088,-6.580765228,9.415461059
19.11288946,-3.397784271,-6.847061462,-5.677094421,9.52137541
19.12283746,-2.539020081,-7.384593658,-5.278323669,9.425473316
19.13278446,-1.332528992,-7.088509369,-5.498815155,9.069705987
19.14273146,-1.062041473,-6.046526184,-5.764812012,8.421488498
19.15267946,-1.111139374,-5.698499908,-6.497089233,8.713191173
19.16262646,-0.979712677,-6.016289063,-7.560328217,9.711546414
19.17257446,-0.522413635,-5.992488556,-8.668773193,10.55132521
19.18252146,-0.2468367,-5.536686401,-9.844877472,11.29767397
19.19246946,-0.052391052,-5.263205109,-10.87353836,12.08047637
19.20241646,0.597407684,-4.858895874,-11.03475311,12.07193196
19.21236446,1.536255341,-4.032763824,-10.12165192,11.00323144
19.22231146,2.272574158,-3.011737061,-8.446186066,9.250579035
19.23225946,2.489473114,-2.359992371,-7.016658783,7.8102843
19.24220646,2.740501099,-2.383194122,-5.647905121,6.714818892
19.25215446,2.806663513,-2.8081604,-4.259841614,5.823175722
19.26210146,2.579735413,-3.401676178,-3.174598389,5.320198356
19.27204846,2.305206299,-3.801943817,-2.483635254,5.092857444
19.28199646,2.224973145,-3.952979736,-2.103725281,5.00022143
19.29194346,2.23140976,-4.016447754,-1.681154022,4.892578147
19.30189146,2.568808136,-4.064497833,-1.260977783,4.970813097
19.31183846,3.514691162,-3.507805481,-0.686921539,5.012944689
19.32178646,4.495900726,-2.30161377,-0.052391052,5.05106861
19.33173346,4.652175751,-0.975222015,0.589474182,4.789705315
19.34168146,3.948189697,-0.319136353,1.75629776,4.332970311
19.35162846,3.404669952,0.102087708,2.840193787,4.434963374
19.36157646,2.741249542,0.91848999,3.846700745,4.811982911
19.37152346,2.761008453,2.589315491,5.479205933,6.659536023
19.38147046,4.725523224,4.883444824,9.836345215,11.95542932
19.39141846,9.184151459,7.128925323,20.17594391,23.28602428
19.40136546,13.59862152,8.159382477,36.93868561,40.19906123
19.41131346,16.54733963,5.982160034,56.50120514,59.17758756
19.42126046,18.97573975,1.387015686,74.42313629,76.81670213
19.43120846,14.77292953,-1.760788422,81.58125092,82.92671659
19.44115546,6.472540283,-1.917362823,75.73066727,76.03094122
19.45110346,1.701511688,-1.440304871,69.85328934,69.88885213
19.46105046,-1.540147247,-2.256407776,68.7602623,68.81451228
19.47099846,-6.073320465,-4.177063751,64.7643219,65.18243992
19.48094546,-9.614805908,-5.373525696,55.69004196,56.76882987
19.49089246,-9.846823425,-4.527485046,45.49519226,46.76826457
19.50084046,-7.397466888,-2.638114014,35.73743362,36.59024903
19.51078746,-4.413122864,-0.341140594,27.10174164,27.46081627
19.52073546,-1.28238327,1.849404144,19.30894684,19.43965613
19.53068246,1.976040802,3.136128387,13.12620392,13.63954793
19.54063046,3.896547089,3.140020294,7.816894684,9.28152192
19.55057746,4.524940338,2.397115173,2.725382538,5.800772034
19.56052546,4.534520416,1.386716309,-2.598446503,5.407104748
19.57047246,3.750899963,-0.270188141,-6.525829468,7.531845883
19.58042046,2.869682465,-2.648442535,-8.253386993,9.130592652
19.59036746,2.223625946,-4.389322357,-9.05646698,10.30680636
19.60031446,1.620380402,-4.988226929,-8.79316452,10.23854398
19.61026246,1.338366852,-5.445675659,-8.062533875,9.820950142
19.62020946,0.695902863,-6.242468719,-7.167545013,9.530288455
19.63015746,-0.351169739,-7.058571625,-6.71279068,9.747220746
19.64010446,-1.343905334,-7.338339844,-6.645281067,9.990849497
19.65005246,-2.238594818,-7.190447388,-6.885531464,10.20413563
19.65999946,-2.711910553,-6.803801422,-7.447163544,10.44540174
19.66994746,-2.290237427,-6.170767822,-8.173602905,10.49434836
