"Time (s)","Acceleration x (m/s^2)","Acceleration y (m/s^2)","Acceleration z (m/s^2)","Absolute acceleration (m/s^2)"
-1.692374935E-3,5.665718079E-1,6.870712280E-1,1.048389862E1,1.052165390E1
8.254625136E-3,5.069956970E-1,8.214916992E-1,1.075363770E1,1.079687996E1
1.820262498E-2,2.091151428E-1,9.307644653E-1,1.079540085E1,1.083746885E1
2.814962505E-2,1.839674377E-1,1.088237000E0,1.088491470E1,1.094072538E1
3.809762513E-2,1.763333130E-1,1.216669922E0,1.137604340E1,1.144227873E1
4.804462497E-2,4.655319214E-2,1.244362335E0,1.183079773E1,1.189614979E1
5.799162504E-2,-1.116677856E-1,1.285826111E0,1.205173828E1,1.212065238E1
6.793962512E-2,-2.104623413E-1,1.337618408E0,1.215637070E1,1.223155207E1
7.788662496E-2,-2.019300842E-1,1.340612183E0,1.210532684E1,1.218100795E1
8.783462504E-2,1.437011719E-2,1.225501556E0,1.204006256E1,1.210227941E1
9.778162511E-2,2.989283752E-1,1.007704468E0,1.212538513E1,1.217085827E1
1.077286249E-1,5.032534790E-1,7.936495972E-1,1.219094879E1,1.222711643E1
1.176766250E-1,6.959028625E-1,6.453080750E-1,1.213436646E1,1.217142360E1
1.276236251E-1,8.689430237E-1,4.718188477E-1,1.221834183E1,1.225828504E1
1.375716249E-1,1.036145325E0,2.270777893E-1,1.228255829E1,1.232827642E1
1.475186250E-1,1.166823578E0,-2.978805542E-2,1.236743179E1,1.242238841E1
1.574656251E-1,1.074315948E0,-2.330653381E-1,1.247820145E1,1.252653127E1
1.674136249E-1,7.723937988E-1,-2.564167786E-1,1.259226425E1,1.261853639E1
1.773606250E-1,2.466870117E-1,-9.849517822E-2,1.273776169E1,1.274053094E1
1.873086251E-1,-2.930905151E-1,8.696914673E-2,1.277398636E1,1.277764427E1
1.972556249E-1,-7.780819702E-1,2.415975952E-1,1.251891678E1,1.254539988E1
2.072026250E-1,-1.044976959E0,3.655398560E-1,1.191671906E1,1.196803197E1
2.171506251E-1,-1.000070343E0,5.183720398E-1,1.114432526E1,1.120110868E1
2.270976249E-1,-7.279362488E-1,6.888674927E-1,1.022014709E1,1.026916921E1
2.370456250E-1,-4.824467468E-1,7.325765991E-1,9.493857422E0,9.534293476E0
2.469926251E-1,-4.486170959E-1,6.698570251E-1,9.246272278E0,9.281353176E0
2.569396251E-1,-4.303550720E-1,5.733078003E-1,9.141789551E0,9.169852971E0
2.668876250E-1,-4.782554626E-1,4.796026611E-1,9.264683990E0,9.289408832E0
2.768346251E-1,-3.273692322E-1,3.273692322E-1,9.815089417E0,9.826002314E0
2.867826251E-1,2.658471680E-1,-1.559756470E-1,9.944121094E0,9.948896795E0
2.967296250E-1,1.173409882E0,-8.960366821E-1,1.051174072E1,1.061491712E1
3.066776250E-1,1.282682648E0,-1.331630859E0,1.174547516E1,1.189010943E1
3.166246251E-1,8.358618164E-1,-1.480720825E0,1.097293167E1,1.110389250E1
3.265716250E-1,1.841171265E-1,-1.035097504E0,1.007854156E1,1.013322881E1
3.365196250E-1,-9.295669556E-2,-3.282673645E-1,9.110205231E0,9.116591455E0
3.464666251E-1,-1.445993042E-1,3.502716064E-1,8.515042877E0,8.523470793E0
3.564146250E-1,-4.384382629E-1,1.051263885E0,8.338709564E0,8.416142885E0
3.663609168E-1,-8.866062927E-1,1.674717407E0,7.796986084E0,8.023947975E0
3.763079166E-1,-8.536747742E-1,1.936672668E0,7.342830505E0,7.641768217E0
3.862559167E-1,-5.477110291E-1,1.872007141E0,7.722890167E0,7.965389547E0
3.962029167E-1,2.894979858E-1,1.612596588E0,8.399333496E0,8.557632851E0
4.061509166E-1,9.208850098E-1,1.364412689E0,8.812624054E0,8.965042884E0
4.160979167E-1,1.168170776E0,1.136736145E0,8.893156586E0,9.041295598E0
4.260449167E-1,9.217831421E-1,1.207838287E0,8.472381592E0,8.607543629E0
4.359929166E-1,2.887495422E-1,3.440146179E0,7.579188995E0,8.328390472E0
4.459399167E-1,-2.512375488E0,5.655988312E0,4.599934387E0,7.711136800E0
4.558879167E-1,-7.788004761E0,6.154302063E0,1.079734680E1,1.466666799E1
4.658349168E-1,-3.564836884E0,2.323168945E-1,8.237519989E0,8.978795505E0
4.757819166E-1,3.511697388E-1,1.811383209E0,8.794661407E0,8.986128120E0
4.857299167E-1,-1.342258759E0,3.657943268E0,1.015952316E1,1.088108995E1
4.956769168E-1,-3.579207001E0,4.635111237E0,7.295528870E0,9.355197508E0
5.056249166E-1,-5.559888153E0,5.026247864E0,6.671326904E0,1.003404836E1
5.155719167E-1,-6.434818726E0,6.852150879E0,5.570815430E0,1.092670345E1
5.255189168E-1,-5.698948975E0,7.589367828E0,6.041287079E0,1.125049657E1
5.354669166E-1,-2.630180511E0,7.508835297E0,6.797963562E0,1.046483472E1
5.454139167E-1,-1.306333466E0,8.068521423E0,8.023465118E0,1.145353821E1
5.553619168E-1,-1.821861420E0,8.423732758E0,7.906109161E0,1.169551259E1
5.653089166E-1,9.678872681E-1,6.009553070E0,7.462880859E0,9.630478939E0
5.752559167E-1,3.279530182E0,2.799927521E0,7.699089661E0,8.824448648E0
5.852039168E-1,3.784579926E0,1.606609039E0,7.241940308E0,8.327660970E0
5.951509166E-1,5.331163788E0,2.311343536E0,7.545509033E0,9.523566708E0
6.050989167E-1,5.007686462E0,1.882784729E0,8.628357239E0,1.015235690E1
6.150459168E-1,3.903582458E0,1.872605896E0,9.795779572E0,1.070989758E1
6.249939166E-1,3.429967346E0,4.347708893E0,1.433059937E1,1.536337615E1
6.349409167E-1,3.308719482E0,7.014263763E0,1.778017593E1,1.939799415E1
6.448879167E-1,1.811832275E0,7.644303589E0,1.607791580E1,1.789462182E1
6.548359166E-1,3.894900513E-1,1.636277344E1,2.075254486E1,2.643028897E1
6.647829167E-1,-1.977837067E0,2.599763763E1,2.260344589E1,3.450659021E1
6.747309167E-1,-6.720125427E0,1.532049088E1,2.103500748E1,2.687655235E1
6.846779166E-1,-6.989116058E0,6.741231537E0,2.205348953E1,2.409664596E1
6.946249167E-1,-1.331181793E0,7.674091644E0,2.202998840E1,2.336630301E1
7.045729167E-1,4.147874451E0,1.163904648E1,1.448253342E1,1.903722773E1
7.145199168E-1,8.600066071E0,1.464674194E1,9.811347198E0,1.961506359E1
7.244679166E-1,8.354277191E0,1.442729828E1,6.507417755E0,1.789657422E1
7.344149167E-1,6.465953979E0,1.349668350E1,4.135150909E0,1.552638076E1
7.443619168E-1,8.318202209E0,1.411729294E1,2.229164429E0,1.653661459E1
7.543099166E-1,7.886799316E0,1.442924423E1,3.583547974E0,1.682992896E1
7.642569167E-1,6.256838837E0,1.367107086E1,4.091591492E0,1.558163444E1
7.742049168E-1,5.727988586E0,1.175745026E1,1.112785950E0,1.312576788E1
7.841519166E-1,8.419990540E-1,8.450377350E0,-4.400249634E0,9.564519674E0
7.940989167E-1,-2.813698883E0,5.899980927E0,-8.408314819E0,1.065018471E1
8.040469168E-1,-4.650828552E0,4.797074432E0,-8.937165070E0,1.115863114E1
8.139939166E-1,-3.569177856E0,4.094585266E0,-7.322622528E0,9.117316478E0
8.239419167E-1,-1.610950012E0,3.027304688E0,-5.229076080E0,6.253236783E0
8.338889168E-1,1.983525238E0,2.674039307E0,-3.593726807E0,4.898952025E0
8.438359166E-1,3.962110748E0,2.675835571E0,-9.313632202E-1,4.870919321E0
8.537839167E-1,2.313439178E0,2.992876282E0,2.905607758E0,4.769891583E0
8.637309168E-1,2.274520111E0,3.472179565E0,6.167175293E0,7.433944025E0
8.736789166E-1,3.109932861E0,2.637215881E0,7.314389648E0,8.374179717E0
8.836259167E-1,3.083737335E0,1.261426849E0,6.758296051E0,7.534931928E0
8.935729167E-1,2.025587769E0,-1.486408997E-1,5.375471649E0,5.746372367E0
9.035209166E-1,4.685256958E-2,-1.340911560E0,3.811823273E0,4.041068626E0
9.134679167E-1,-1.252744904E0,-2.328557739E0,2.327210541E0,3.522422439E0
9.234159167E-1,-1.742975464E0,-3.175646210E0,1.043180695E0,3.769737163E0
9.333629166E-1,-1.580563202E0,-3.672014008E0,1.820214844E-1,4.001874402E0
9.433099166E-1,-1.492845612E0,-3.904330902E0,-1.049317932E-1,4.181315402E0
9.532579167E-1,-1.529519348E0,-3.987408142E0,-1.868115234E-1,4.274780892E0
9.632049168E-1,-9.952803040E-1,-3.757037201E0,-7.116201782E-1,3.951242171E0
9.731529166E-1,-2.037263489E-1,-3.538042603E0,-8.216413879E-1,3.637903854E0
9.830999167E-1,-6.706054688E-2,-3.600612488E0,-4.450245667E-1,3.628629806E0
9.930469168E-1,-2.661465454E-1,-3.572920074E0,-3.953279114E-1,3.604563219E0
1.002994917E0,-9.151968384E-1,-3.195105743E0,-4.080514526E-1,3.348550724E0
1.012941917E0,-1.363514557E0,-2.885250092E0,-3.655398560E-1,3.212080233E0
1.022889917E0,-1.181642761E0,-2.839445343E0,-4.320016479E-1,3.105697167E0
1.032836917E0,-8.655001831E-1,-2.580334167E0,-4.246669006E-1,2.754552043E0
1.042783917E0,-8.207432556E-1,-2.164648590E0,-2.161505127E-1,2.325090117E0
1.052731917E0,-6.694079590E-1,-1.406325531E0,1.378633118E-1,1.563606347E0
1.062678917E0,-1.091230774E-1,-3.986210632E-1,5.391787720E-1,6.793528878E-1
1.072626917E0,7.801776123E-1,4.186793518E-1,1.219064941E0,1.506681399E0
1.082573917E0,1.250499573E0,1.185384979E0,2.286495209E0,2.863031098E0
1.092520917E0,1.000070343E0,2.654879150E0,3.380869446E0,4.413479603E0
1.102468917E0,3.258723450E-1,4.612059174E0,4.297563171E0,6.312395094E0
1.112415917E0,4.640350342E-3,7.563771057E0,4.789739685E0,8.952779478E0
1.122363917E0,-8.831634521E-3,1.085377945E1,4.921765137E0,1.191756596E1
1.132310917E0,7.295828247E-1,1.362990646E1,5.491181030E0,1.471256981E1
1.142257917E0,3.129242706E0,1.640768005E1,6.432274017E0,1.789911377E1
1.152205917E0,5.141807556E0,2.003059616E1,8.452772369E0,2.234082201E1
1.162152917E0,6.036497040E0,2.368809036E1,1.026235931E1,2.651190186E1
1.172100917E0,6.838978271E0,2.711925522E1,1.138173157E1,3.019552021E1
1.182047917E0,8.135581970E0,3.019131683E1,1.207523941E1,3.351887100E1
1.191995917E0,9.353449402E0,3.384881104E1,1.360026810E1,3.765894736E1
1.201942917E0,9.409732361E0,3.731051239E1,1.662981812E1,4.191859073E1
1.211889917E0,1.072280182E1,3.886428131E1,1.953991653E1,4.480199972E1
1.221837917E0,1.260723312E1,3.788247299E1,2.189481949E1,4.553468137E1
1.231784917E0,1.361239288E1,3.598277344E1,2.309921494E1,4.487349947E1
1.241732917E0,1.142095001E1,3.269710602E1,2.247186951E1,4.128587846E1
1.251679917E0,8.462053070E0,2.928734665E1,1.829750015E1,3.555493676E1
1.261626917E0,4.887935486E0,2.559692093E1,1.088371719E1,2.824092021E1
1.271574917E0,1.971400452E0,2.073443253E1,4.442611542E0,2.129647645E1
1.281521917E0,-4.355941772E-1,1.653431671E1,-3.023712158E-2,1.654008119E1
1.291469917E0,-3.131488037E0,1.120240448E1,-2.768193512E0,1.195671271E1
1.301416917E0,-5.860313416E0,6.296805725E0,-4.449646912E0,9.684647299E0
1.311363917E0,-4.333937531E0,3.131637726E0,-7.095395050E0,8.884525889E0
1.321311917E0,-2.263143768E0,1.933080139E0,-6.354585571E0,7.017077477E0
1.331258917E0,-1.619631958E0,1.980681152E0,-5.412594452E0,5.986859294E0
1.341206917E0,-9.785151672E-1,1.208736420E0,-5.233417053E0,5.459596113E0
1.351153917E0,-8.213420105E-1,5.613327026E-1,-4.427193604E0,4.537591906E0
1.361100917E0,-3.935316467E-1,1.062789917E-2,-3.748804321E0,3.769418251E0
1.371048750E0,1.594184875E-1,-6.584806824E-1,-3.101849670E0,3.174977550E0
1.380995750E0,5.254074097E-2,-1.648671570E0,-2.298021240E0,2.828741787E0
1.390943750E0,-3.573069763E-1,-2.715353394E0,-1.406475220E0,3.078796010E0
1.400890750E0,-4.565505981E-1,-3.698059845E0,-3.981719971E-1,3.747349197E0
1.410837750E0,-5.224136353E-1,-4.708009644E0,5.545967102E-1,4.769260773E0
1.420785750E0,-6.334826660E-1,-5.881419525E0,1.328188019E0,6.062712209E0
1.430732750E0,-8.144563293E-1,-7.075336761E0,1.660197601E0,7.313001126E0
1.440680750E0,-1.416803741E0,-7.968978424E0,1.444496155E0,8.221831858E0
1.450627750E0,-1.994901581E0,-8.550818481E0,4.580474854E-1,8.792379457E0
1.460574750E0,-2.070644073E0,-8.782835999E0,-1.058149567E0,9.085452964E0
1.470522750E0,-1.736987915E0,-8.361462250E0,-2.389930115E0,8.868085697E0
1.480469750E0,-1.229393463E0,-7.343129883E0,-3.349135437E0,8.163925094E0
1.490417750E0,-8.282276917E-1,-6.084996185E0,-3.955075378E0,7.304502785E0
1.500364750E0,-5.812413025E-1,-4.882696381E0,-4.165537720E0,6.444398334E0
1.510311750E0,-4.784051514E-1,-3.859573975E0,-3.921694794E0,5.523121654E0
1.520259750E0,-5.331912231E-1,-2.978805542E0,-3.504063263E0,4.629906553E0
1.530206750E0,-5.800437927E-1,-2.314487000E0,-2.979404297E0,3.817086695E0
1.540154750E0,-7.601193237E-1,-1.789229279E0,-2.164947968E0,2.909660203E0
1.550101750E0,-7.908055115E-1,-9.859996033E-1,-1.122216339E0,1.690247936E0
1.560048750E0,-2.811154175E-1,1.604663086E-1,-6.391708374E-2,3.299404609E-1
1.569996750E0,4.412823486E-1,1.522184601E0,8.837622070E-1,1.814610622E0
1.579943750E0,1.202599182E0,2.924917603E0,1.662442932E0,3.572828610E0
1.589891750E0,1.595382385E0,4.456831970E0,2.414179688E0,5.313836630E0
1.599838750E0,1.867217102E0,6.059249725E0,2.887645111E0,6.967029584E0
1.609785750E0,2.003284149E0,7.677235107E0,2.951861572E0,8.465611202E0
1.619733750E0,1.677711182E0,9.361981659E0,3.101550293E0,1.000405066E1
1.629680750E0,8.105644226E-1,1.117096985E1,3.723207550E0,1.180295965E1
1.639628750E0,-2.309696960E-1,1.343441299E1,4.855902100E0,1.428693756E1
1.649575750E0,-1.028511200E0,1.583137848E1,6.377188568E0,1.709850619E1
1.659522750E0,2.020797729E-2,2.062351318E1,9.786349182E0,2.282766599E1
1.669470750E0,2.453697510E0,2.537987228E1,1.527842834E1,2.972522365E1
1.679417750E0,4.962480469E0,2.945305206E1,2.045346680E1,3.620017669E1
1.689365750E0,7.302115173E0,3.266028259E1,2.261811539E1,4.039299554E1
1.699312750E0,9.231153717E0,3.309542770E1,2.078427887E1,4.015604291E1
1.709259750E0,1.093251572E1,3.249891815E1,1.600471802E1,3.783980153E1
1.719207750E0,1.284164566E1,3.264501434E1,1.020293289E1,3.653361006E1
1.729154750E0,1.405008270E1,3.338687164E1,5.851781158E0,3.669238838E1
1.739102750E0,1.641950546E1,3.223950760E1,5.720204773E0,3.662931548E1
1.749049750E0,1.691332855E1,2.985047562E1,7.114854584E0,3.503901729E1
1.758996750E0,1.413959656E1,2.649819672E1,6.427483978E0,3.071473865E1
1.768944750E0,9.683513031E0,2.324501175E1,3.563040619E0,2.543218933E1
1.778891750E0,5.934559021E0,1.966909790E1,5.903723145E-1,2.055336815E1
1.788839750E0,3.443589020E0,1.671918228E1,-1.891316986E0,1.717458708E1
1.798786750E0,1.782193909E0,1.466365677E1,-2.085163879E0,1.491800769E1
1.808733750E0,1.819765778E0,1.181747543E1,2.956352234E-1,1.196042112E1
1.818681750E0,1.599573669E0,9.803413696E0,3.193159790E0,1.043368705E1
1.828628750E0,7.274871826E-2,8.811426544E0,4.256997528E0,9.786141123E0
1.838576750E0,-9.045689392E-1,7.371421051E0,3.425177307E0,8.178504317E0
1.848523750E0,-5.592370605E-1,6.147266693E0,1.461860046E0,6.343395674E0
1.858470750E0,2.671943665E-1,5.050048370E0,-2.323168945E-1,5.062445310E0
1.868418750E0,8.271798706E-1,3.441044312E0,-1.710193634E0,3.930620149E0
1.878365750E0,1.440005493E0,1.599124603E0,-3.650608521E0,4.237659482E0
1.888313750E0,1.238973541E0,-7.244934082E-2,-4.326902161E0,4.501376084E0
1.898260750E0,8.574169922E-1,-1.497635651E0,-3.560645599E0,3.956800921E0
1.908207750E0,7.659571838E-1,-3.076103210E0,-2.556833038E0,4.072652275E0
1.918155750E0,5.406756592E-1,-4.444856873E0,-1.690135345E0,4.785983731E0
1.928102750E0,8.577163696E-2,-5.436544647E0,-9.993218994E-1,5.528292569E0
1.938050750E0,-4.984634399E-1,-6.182144165E0,-3.077600098E-1,6.209838042E0
1.947997750E0,-1.175056458E0,-6.552324371E0,1.390608215E-1,6.658306861E0
1.957944750E0,-1.622026978E0,-6.537355499E0,2.525248718E-1,6.740308394E0
1.967892750E0,-1.841021576E0,-6.293811951E0,3.867956543E-1,6.568945135E0
1.977839750E0,-2.132166138E0,-5.692811737E0,3.620970154E-1,6.089774393E0
1.987787750E0,-2.557132416E0,-4.769082642E0,1.963916016E-1,5.414946454E0
1.997734750E0,-2.468666382E0,-3.980672150E0,-2.311193848E-1,4.689720742E0
2.007681750E0,-2.449057159E0,-3.257226562E0,-5.782475281E-1,4.116038879E0
2.017629750E0,-2.539319458E0,-2.506986694E0,-4.733157349E-1,3.599604614E0
2.027576750E0,-2.411335602E0,-1.593885498E0,1.007405090E-1,2.892258463E0
2.037524750E0,-1.971699829E0,-6.926097107E-1,3.134481812E-1,2.113186738E0
2.047471750E0,-1.421743469E0,-2.782713318E-1,4.092489624E-1,1.505414939E0
2.057418750E0,-5.522016907E-1,2.680924988E-1,5.754034424E-1,8.413616444E-1
2.067366750E0,3.535647583E-1,1.126108246E0,8.815168762E-1,1.473159809E0
2.077313750E0,1.350641327E0,2.051483917E0,1.085841980E0,2.685492704E0
2.087261750E0,2.309846649E0,3.202290802E0,1.179547119E0,4.120848132E0
2.097208750E0,3.280428314E0,4.593797150E0,1.496138763E0,5.839744290E0
2.107155750E0,4.156257019E0,6.138135681E0,1.919907532E0,7.657494824E0
2.117103750E0,3.640130310E0,8.096064148E0,2.281705170E0,9.165314061E0
2.127050750E0,1.854643250E0,1.059272232E1,1.811083832E0,1.090529653E1
2.136998750E0,9.991722107E-1,1.328008392E1,8.972341919E-1,1.334780893E1
2.146945750E0,1.887724457E0,1.637265289E1,1.333277435E0,1.653495979E1
2.156892750E0,3.305276642E0,1.992880783E1,4.316423950E0,2.065705088E1
2.166840750E0,5.446274414E0,2.338122849E1,9.126521301E0,2.568340206E1
2.176787750E0,7.821085968E0,2.600467300E1,1.353215973E1,3.034026616E1
2.186735750E0,7.954907684E0,2.764346512E1,1.571581879E1,3.277847892E1
2.196682750E0,6.279441833E0,2.931114716E1,1.488040604E1,3.346641931E1
2.206629750E0,3.828588409E0,3.124811920E1,1.331286575E1,3.418092213E1
2.216577750E0,4.234244843E0,3.348925873E1,1.288221130E1,3.613046703E1
2.226524750E0,5.683081970E0,3.444621872E1,1.369921234E1,3.750343749E1
2.236472750E0,6.872508545E0,3.332969055E1,1.493489273E1,3.716383547E1
2.246419750E0,8.524772644E0,3.135110504E1,1.388138351E1,3.533067144E1
2.256366750E0,8.867260437E0,2.918316330E1,1.003438339E1,3.210878662E1
2.266314750E0,7.356003113E0,2.700384521E1,3.789070587E0,2.824314951E1
2.276261750E0,6.085445251E0,2.537538162E1,-1.438807983E0,2.613451367E1
2.286209750E0,5.093158722E0,2.335293732E1,-2.195334778E0,2.400248824E1
2.296156750E0,4.263284454E0,2.080583405E1,1.152603149E-2,2.123813687E1
2.306103750E0,2.809507599E0,1.840377914E1,2.746638336E0,1.881851328E1
2.316051750E0,1.437311096E0,1.577823898E1,4.601131897E0,1.649815454E1
2.325998750E0,7.915539551E-1,1.344863342E1,5.705684967E0,1.463034995E1
2.335946750E0,6.447093201E-1,1.119806351E1,6.310726776E0,1.287002521E1
2.345893750E0,6.035449219E-1,8.842861176E0,6.204148407E0,1.081905346E1
2.355840750E0,2.019300842E-1,6.224655762E0,5.324727173E0,8.193890076E0
2.365788750E0,-3.716770935E-1,3.510050812E0,4.211043091E0,5.494677832E0
2.375736667E0,-9.900411987E-1,1.142124939E0,3.543730774E0,3.852617130E0
2.385684667E0,-2.178719330E0,-1.617835693E0,3.063529358E0,4.092605817E0
2.395631667E0,-2.095791779E0,-3.996988220E0,1.552122345E0,4.772561344E0
2.405578667E0,-1.320703583E0,-4.412374420E0,-1.309776306E-1,4.607652452E0
2.415526667E0,-5.071453857E-1,-4.497247925E0,-1.880539398E0,4.900904383E0
2.425473667E0,8.399034119E-1,-4.729115753E0,-3.286715240E0,5.820006067E0
2.435421667E0,1.298998718E0,-5.299280090E0,-4.159250793E0,6.860694885E0
2.445368667E0,1.112785950E0,-5.979016571E0,-3.954177246E0,7.254133265E0
2.455315667E0,5.292993164E-1,-6.455475769E0,-2.898871765E0,7.096251312E0
2.465263667E0,-2.574645996E-1,-6.589596863E0,-2.065554657E0,6.910542010E0
2.475210667E0,-9.485774231E-1,-6.113586731E0,-1.832189941E0,6.452337702E0
2.485158667E0,-1.766027527E0,-5.681585083E0,-1.855840759E0,6.232447930E0
2.495105667E0,-2.471211090E0,-5.145250397E0,-1.728156281E0,5.963808349E0
2.505052667E0,-3.019371185E0,-4.678970032E0,-1.587897949E0,5.790577071E0
2.515000667E0,-3.184777222E0,-4.030368805E0,-1.745969238E0,5.425411250E0
2.524947667E0,-2.970722351E0,-3.334016876E0,-1.689386902E0,4.774399221E0
2.534895667E0,-2.589165802E0,-2.816692657E0,-1.200204163E0,4.009741526E0
2.544842667E0,-2.294578400E0,-2.493215332E0,-8.008346558E-1,3.481745090E0
2.554789667E0,-1.723515930E0,-1.933080139E0,-5.339396667E-1,2.644314193E0
2.564737667E0,-1.012045441E0,-1.610800323E0,-1.776805115E-1,1.910623987E0
2.574684667E0,-4.802014160E-1,-1.202748871E0,1.642085266E-1,1.305435822E0
2.584632667E0,1.089733887E-1,-3.338058472E-1,4.668791199E-1,5.841897428E-1
2.594579667E0,1.193019104E0,5.339396667E-1,8.656498718E-1,1.567716764E0
2.604526667E0,2.082768860E0,1.188678131E0,1.441352692E0,2.797924124E0
2.614474667E0,2.943479004E0,1.887275391E0,2.016307068E0,4.036257083E0
2.624421667E0,3.598516846E0,2.762954407E0,2.542911987E0,5.200927025E0
2.634369667E0,4.127516785E0,3.829486542E0,2.806663513E0,6.291162218E0
2.644316667E0,4.501439209E0,5.171595612E0,3.203488312E0,7.567740316E0
2.654263667E0,4.808151398E0,6.727609863E0,3.756588135E0,9.082456097E0
2.664211667E0,3.021766205E0,8.234376526E0,3.358865204E0,9.392443943E0
2.674158667E0,-8.502319336E-2,1.086425766E1,2.866539001E0,1.123638595E1
2.684106667E0,-2.795436859E0,1.384590729E1,3.278033295E0,1.450065923E1
2.694053667E0,-2.754571838E0,1.729907639E1,5.687722321E0,1.841727165E1
2.704000667E0,-1.142274628E0,2.178015793E1,1.061113403E1,2.425440653E1
2.713948667E0,2.376308441E0,2.602862320E1,1.619362518E1,3.074686267E1
2.723895667E0,5.494324493E0,2.935350906E1,1.855271942E1,3.515706890E1
2.733843667E0,7.569758606E0,3.116848480E1,1.574156525E1,3.572915569E1
2.743790667E0,8.755442963E0,3.198219269E1,9.960287476E0,3.462261916E1
2.753737667E0,1.010728180E1,3.349809036E1,7.154671783E0,3.571370230E1
2.763685667E0,1.488564514E1,3.561663483E1,8.524922333E0,3.953228312E1
2.773632667E0,1.967284012E1,3.695320541E1,1.138697067E1,4.338459554E1
2.783580667E0,2.080763031E1,3.614832916E1,1.299298096E1,4.368611604E1
2.793527667E0,1.798839294E1,3.384776321E1,1.134939880E1,3.997577027E1
2.803474667E0,1.391656036E1,3.134571625E1,7.978708191E0,3.521199176E1
2.813422667E0,1.059032730E1,2.863096161E1,5.626948700E0,3.104109448E1
2.823369667E0,8.069868622E0,2.530293228E1,4.963827667E0,2.701852599E1
2.833317667E0,5.853577423E0,2.201936050E1,5.034630432E0,2.333375472E1
2.843264667E0,4.088298340E0,1.883338577E1,4.659510498E0,1.982729535E1
2.853211667E0,2.550546112E0,1.573917023E1,3.713777161E0,1.637128296E1
2.863159667E0,1.523681488E0,1.263432678E1,2.928360443E0,1.305844989E1
2.873106667E0,1.312770081E-1,9.035360870E0,2.664908295E0,9.421078278E0
2.883054667E0,-1.587299194E0,5.783523102E0,2.289488983E0,6.419534096E0
2.893001667E0,-2.815195770E0,3.327280884E0,2.231709137E0,4.896595856E0
2.902948667E0,-3.198847961E0,1.409768372E0,2.536625061E0,4.319090395E0
2.912896667E0,-2.895428925E0,-2.044747925E-1,2.897973633E0,4.101654517E0
2.922843667E0,-2.363734589E0,-1.583107910E0,3.278482361E0,4.340727871E0
2.932791667E0,-1.606309662E0,-2.649939423E0,3.001558228E0,4.314135077E0
2.942738667E0,-1.275048523E0,-3.761527863E0,2.159409485E0,4.520828455E0
2.952685667E0,-1.084494781E0,-4.699627075E0,1.359772339E0,5.011148011E0
2.962633667E0,-7.855664063E-1,-5.602250061E0,9.349557495E-1,5.733800012E0
2.972580667E0,-6.258485413E-1,-6.370901642E0,4.879852295E-1,6.420140474E0
2.982528667E0,-5.421725464E-1,-7.029082947E0,-3.867956543E-1,7.060564356E0
2.992475667E0,-5.667214966E-1,-7.608378296E0,-1.711091766E0,7.818978743E0
3.002422667E0,-8.168513489E-1,-8.063731384E0,-3.441643066E0,8.805448141E0
3.012370667E0,-1.088686066E0,-8.571325836E0,-4.756059723E0,9.862705918E0
3.022317667E0,-1.433568878E0,-8.775800629E0,-5.320685577E0,1.036240761E1
3.032265667E0,-1.537452850E0,-8.725205841E0,-5.022655334E0,1.018430385E1
3.042212667E0,-1.617536316E0,-8.388106842E0,-4.179309082E0,9.510172687E0
3.052159667E0,-1.879491577E0,-7.709717560E0,-3.195255432E0,8.554641472E0
3.062107667E0,-2.243684235E0,-6.696175232E0,-2.223176880E0,7.403742103E0
3.072054667E0,-2.505190430E0,-5.897436218E0,-1.422192535E0,6.563411053E0
3.082002667E0,-2.624342651E0,-5.175786896E0,-7.767347717E-1,5.854849379E0
3.091949667E0,-2.561922455E0,-4.348457336E0,-2.866539001E-1,5.055165510E0
3.101896667E0,-2.254611511E0,-3.343596954E0,1.145118713E-1,4.034355789E0
3.111844667E0,-1.793420563E0,-2.212548981E0,3.676354980E-1,2.871739223E0
3.121791667E0,-1.085392914E0,-1.174457703E0,5.119354248E-1,1.679138634E0
3.131739667E0,-3.159928894E-1,-3.335064697E-1,6.719526672E-1,8.140015101E-1
3.141686667E0,4.255650330E-1,4.375401306E-1,9.538165283E-1,1.132392570E0
3.151633667E0,1.203946381E0,1.416204987E0,1.401685181E0,2.328056012E0
3.161581667E0,1.937870178E0,2.364183655E0,1.745669861E0,3.520236987E0
3.171528667E0,2.731370087E0,3.239862671E0,1.928739166E0,4.655870214E0
3.181476667E0,2.541714478E0,4.198618927E0,1.710493011E0,5.197547472E0
3.191423667E0,5.800437927E-1,5.190755768E0,1.219064941E0,5.363442511E0
3.201370667E0,-1.510957947E0,6.950496368E0,6.454577637E-1,7.142059185E0
3.211318667E0,-2.421215057E0,1.027628036E1,6.647676086E-1,1.057856968E1
3.221265667E0,-2.458786926E0,1.457908264E1,2.371219025E0,1.497390943E1
3.231213667E0,-8.628057861E-1,1.994946487E1,6.092779999E0,2.087696220E1
3.241160667E0,2.624492340E0,2.637874512E1,1.226714035E1,2.920973958E1
3.251107667E0,7.008874969E0,3.259666489E1,1.760489044E1,3.770409868E1
3.261055667E0,1.012464569E1,3.667777817E1,1.914084641E1,4.259272077E1
3.271002667E0,1.196327225E1,3.956617172E1,1.784274582E1,4.502183255E1
3.280950667E0,1.492591141E1,4.232942551E1,1.694266754E1,4.797517148E1
3.290897667E0,1.906884613E1,4.501304489E1,1.804272995E1,5.210887839E1
3.300844667E0,2.179003738E1,4.490182617E1,1.748409164E1,5.288358142E1
3.310792667E0,1.859014160E1,4.143982544E1,1.353844666E1,4.739348093E1
3.320739667E0,1.379201935E1,3.699736359E1,8.202941895E0,4.032757079E1
3.330687667E0,9.826166382E0,3.216900421E1,5.215005341E0,3.403813535E1
3.340634667E0,5.622607727E0,2.759975601E1,4.759652252E0,2.856596820E1
3.350581667E0,1.949845276E0,2.326432159E1,5.269342346E0,2.393316788E1
3.360529667E0,-6.667135620E-1,1.951222412E1,6.263425140E0,2.050370434E1
3.370479000E0,-2.140399017E0,1.637534729E1,6.606062622E0,1.778688759E1
3.380427000E0,-2.593955841E0,1.384351227E1,6.286626892E0,1.542378412E1
3.390374000E0,-2.178569641E0,1.183947968E1,6.028264160E0,1.346326162E1
3.400321000E0,-1.189875641E0,1.013033386E1,5.876180420E0,1.177153195E1
3.410269000E0,-4.390370178E-1,8.414601746E0,5.591023407E0,1.011226081E1
3.420216000E0,-2.730322266E-1,6.713239746E0,5.012476501E0,8.382544671E0
3.430164000E0,-4.581971741E-1,4.963677979E0,4.236639862E0,6.541953916E0
3.440111000E0,-6.480024719E-1,3.223696289E0,3.473077698E0,4.782718229E0
3.450058000E0,-6.990463257E-1,1.679956512E0,2.842888184E0,3.375341890E0
3.460006000E0,-5.034031677E-1,3.400927734E-1,2.289488983E0,2.368720677E0
3.469953000E0,-7.649093628E-2,-7.436535645E-1,1.674268341E0,1.833588276E0
3.479901000E0,4.824467468E-1,-1.526675262E0,8.482859802E-1,1.811927516E0
3.489848000E0,1.062640228E0,-2.086810455E0,-1.826202393E-1,2.348900228E0
3.499795000E0,1.550924835E0,-2.625540161E0,-1.246607666E0,3.294367869E0
3.509743000E0,1.852996674E0,-3.254083099E0,-2.414029999E0,4.455355690E0
3.519690000E0,2.179467773E0,-4.106560364E0,-3.712280273E0,5.949364893E0
3.529638000E0,2.227218475E0,-5.092260590E0,-4.925207977E0,7.426257043E0
3.539585000E0,1.654659119E0,-6.242019653E0,-5.734574890E0,8.636321863E0
3.549532000E0,6.042933655E-1,-7.193291473E0,-5.934109955E0,9.344638765E0
3.559480000E0,-4.373904419E-1,-7.506739655E0,-5.607040100E0,9.379837383E0
3.569427000E0,-1.195414124E0,-7.380701752E0,-4.766238556E0,8.866837274E0
3.579375000E0,-1.688788147E0,-7.114255829E0,-3.583997040E0,8.143075352E0
3.589322000E0,-1.935175781E0,-6.753506012E0,-2.591411133E0,7.488001096E0
3.599269000E0,-2.026635590E0,-6.398893433E0,-1.774859161E0,6.942853449E0
3.609217000E0,-2.227368164E0,-6.057154083E0,-1.256038055E0,6.574793999E0
3.619164000E0,-2.460433502E0,-5.637277222E0,-1.117875366E0,6.251581626E0
3.629112000E0,-2.572101288E0,-5.104385376E0,-9.973759460E-1,5.802173203E0
3.639059000E0,-2.465223541E0,-4.394411774E0,-7.890092468E-1,5.100070346E0
3.649006000E0,-2.045496368E0,-3.710034943E0,-4.616400146E-1,4.261634214E0
3.658954000E0,-1.379381561E0,-3.057392120E0,5.568420410E-2,3.354614851E0
3.668901000E0,-7.408094788E-1,-2.377505951E0,7.194039917E-1,2.592079346E0
3.678849000E0,-2.263293457E-1,-1.760189667E0,1.326990509E0,2.215941436E0
3.688796000E0,2.240840149E-1,-1.222058716E0,1.779499512E0,2.170313264E0
3.698743000E0,6.626719666E-1,-6.135740662E-1,2.198178864E0,2.376467459E0
3.708691000E0,1.012943573E0,2.041754150E-1,2.740800476E0,2.929117535E0
3.718638000E0,1.558259583E0,1.206042023E0,3.209326172E0,3.765963989E0
3.728586000E0,2.194286957E0,2.506387939E0,3.670666809E0,4.956881134E0
3.738533000E0,2.414029999E0,4.311633911E0,4.028273163E0,6.375320580E0
3.748480000E0,1.287023621E0,6.503376160E0,3.820505219E0,7.651574439E0
3.758428000E0,-7.051835632E-1,8.912466431E0,2.961741028E0,9.418134192E0
3.768375000E0,-2.100132751E0,1.170056854E1,2.332449646E0,1.211421410E1
3.778323000E0,-2.210752716E0,1.545116913E1,3.603007507E0,1.601897993E1
3.788270000E0,-3.224295044E-1,2.024240570E1,8.008795624E0,2.177153547E1
3.798217000E0,4.099375305E0,2.545890793E1,1.502829849E1,2.984645082E1
3.808165000E0,8.209977264E0,3.049832840E1,2.125025986E1,3.806737850E1
3.818112000E0,1.020862106E1,3.356440247E1,2.227023880E1,4.155416457E1
3.828060000E0,1.078941330E1,3.514975571E1,1.874177628E1,4.126949168E1
3.838007000E0,1.074345886E1,3.680666016E1,1.456306595E1,4.101505858E1
3.847954000E0,1.191836563E1,3.805955475E1,1.274270142E1,4.186828855E1
3.857902000E0,1.309312271E1,3.820145966E1,1.373708359E1,4.265546680E1
3.867849000E0,1.241697876E1,3.626987640E1,1.452264999E1,4.099503212E1
3.877797000E0,9.745783539E0,3.324092514E1,1.355476273E1,3.719772834E1
3.887744000E0,6.865323486E0,2.991514114E1,1.182915115E1,3.289342112E1
3.897691000E0,4.224664764E0,2.672063416E1,9.921817474E0,2.881462379E1
3.907639000E0,2.249821472E0,2.407084442E1,8.552764435E0,2.564404467E1
3.917586000E0,1.356928253E0,2.159948364E1,7.955356750E0,2.305789776E1
3.927534000E0,1.027463379E0,1.919054306E1,7.538922729E0,2.064383637E1
3.937481000E0,8.526269531E-1,1.676558578E1,6.878346405E0,1.814176090E1
3.947428000E0,7.476951599E-1,1.437385941E1,5.916895752E0,1.556202229E1
3.957376000E0,7.909552002E-1,1.208511887E1,4.815935211E0,1.303337792E1
3.967323000E0,8.949888611E-1,9.766290894E0,3.946243744E0,1.057138981E1
3.977271000E0,9.966275024E-1,7.541018372E0,3.199596405E0,8.252129520E0
3.987218000E0,1.029259644E0,5.425916748E0,2.565664673E0,6.089547043E0
3.997165000E0,1.002914429E0,3.505111084E0,2.086660767E0,4.200689731E0
4.007113000E0,9.234297180E-1,1.752405853E0,1.711391144E0,2.617729620E0
4.017060000E0,7.583230591E-1,1.755848694E-1,1.605261841E0,1.784026201E0
4.027008000E0,5.542973328E-1,-1.110241241E0,1.747166748E0,2.143005551E0
4.036955000E0,4.878355408E-1,-2.048190765E0,2.005080414E0,2.907475949E0
4.046902000E0,4.656816101E-1,-2.812052307E0,2.104024658E0,3.542797948E0
4.056850000E0,3.579057312E-1,-3.484753418E0,1.726360016E0,3.905370892E0
4.066797000E0,3.427871704E-2,-4.120780792E0,9.506730652E-1,4.229159331E0
4.076745000E0,-5.635780334E-1,-4.673880615E0,-2.884501648E-1,4.716564820E0
4.086692000E0,-1.273851013E0,-5.228327637E0,-1.733245697E0,5.653516333E0
4.096639000E0,-1.836979980E0,-5.745352478E0,-2.998863831E0,6.736227046E0
4.106587000E0,-2.051633606E0,-6.021677856E0,-3.949686584E0,7.487978951E0
4.116534000E0,-1.993853760E0,-6.063890076E0,-4.457281036E0,7.785471720E0
4.126482000E0,-1.765578461E0,-5.890101471E0,-4.441563721E0,7.585384033E0
4.136429000E0,-1.486408997E0,-5.565576324E0,-3.943399658E0,6.981078168E0
4.146376000E0,-1.277443542E0,-5.176834717E0,-3.398233337E0,6.322932034E0
4.156324000E0,-1.260678406E0,-4.841531982E0,-2.918031921E0,5.791774536E0
4.166271000E0,-1.328337708E0,-4.430486755E0,-2.541714478E0,5.277689498E0
4.176219000E0,-1.421144714E0,-3.911665649E0,-2.151925049E0,4.685249392E0
4.186166000E0,-1.538201294E0,-3.235521698E0,-1.664239197E0,3.950234928E0
4.196113000E0,-1.439406738E0,-2.563269653E0,-1.276096344E0,3.204787817E0
4.206061000E0,-1.293609924E0,-2.002086639E0,-1.094972992E0,2.623117115E0
4.216008000E0,-1.109343109E0,-1.597777405E0,-9.340576172E-1,2.157776263E0
4.225956000E0,-7.824229431E-1,-1.114282837E0,-6.397695923E-1,1.504365991E0
4.235903000E0,-5.451663208E-1,-5.457650757E-1,-1.552272034E-1,7.868680447E-1
4.245850000E0,-4.423301697E-1,3.547622681E-2,5.075944519E-1,6.742155955E-1
4.255798000E0,-4.119433594E-1,8.675958252E-1,1.105600891E0,1.464504414E0
4.265745000E0,-7.258406067E-1,1.823657684E0,1.539997559E0,2.494827532E0
4.275693000E0,-1.286275177E0,2.921474762E0,1.749711456E0,3.640193511E0
4.285640000E0,-1.633403320E0,4.089645538E0,1.668879547E0,4.709391254E0
4.295587000E0,-1.719025269E0,5.532495117E0,1.608854370E0,6.012650204E0
4.305535000E0,-1.305135956E0,7.604785767E0,2.471660156E0,8.102175655E0
4.315482000E0,-6.915618896E-2,1.045890060E1,4.313130798E0,1.131355301E1
4.325430000E0,1.815424805E0,1.406639877E1,7.054080963E0,1.584043560E1
4.335377000E0,3.647015991E0,1.779319885E1,1.006521927E1,2.076553130E1
4.345324000E0,5.157973938E0,2.114233429E1,1.167871399E1,2.469808403E1
4.355272000E0,5.671256561E0,2.403611664E1,1.152333710E1,2.725225407E1
4.365219000E0,4.933291168E0,2.722733047E1,1.117351456E1,2.984145295E1
4.375164167E0,5.375920715E0,3.134526718E1,1.312006668E1,3.440294243E1
4.385111167E0,7.295528870E0,3.594684814E1,1.719773712E1,4.051126751E1
4.395058167E0,9.669292603E0,4.001838135E1,2.129037643E1,4.634917684E1
4.405006167E0,1.186313049E1,4.210115021E1,2.308170135E1,4.945710921E1
4.414953167E0,1.245844254E1,4.174758545E1,2.210079117E1,4.885200765E1
4.424901167E0,1.125928619E1,3.912114716E1,1.843177094E1,4.468742396E1
4.434848167E0,8.452023926E0,3.486489807E1,1.360460907E1,3.836773663E1
4.444795167E0,4.826862488E0,3.074800919E1,9.749226379E0,3.261573371E1
4.454743167E0,2.343077545E0,2.665072952E1,7.163503418E0,2.769597764E1
4.464690167E0,6.180647278E-1,2.278037796E1,5.682632904E0,2.348659066E1
4.474638167E0,-6.493496704E-1,1.894565231E1,4.818479919E0,1.955957937E1
4.484585167E0,-1.525028687E0,1.523352173E1,4.564009094E0,1.597548358E1
4.494532167E0,-2.330354004E0,1.181612823E1,4.972359924E0,1.302980428E1
4.504480167E0,-2.574346619E0,8.717272339E0,5.520520020E0,1.063457751E1
4.514427167E0,-2.463427277E0,6.101461945E0,6.004313965E0,8.907754936E0
4.524375167E0,-2.168241119E0,4.111649780E0,6.189329224E0,7.740460562E0
4.534322167E0,-1.630110168E0,2.503543854E0,6.077661438E0,6.772219691E0
4.544269167E0,-1.012494507E0,1.223256226E0,5.708828430E0,5.925556764E0
4.554217167E0,-4.035607910E-1,2.381547546E-1,5.180876312E0,5.202024448E0
4.564164167E0,2.252815247E-1,-4.673281860E-1,4.469405823E0,4.499415052E0
4.574112167E0,9.228309631E-1,-9.102571106E-1,3.600163422E0,3.826403227E0
4.584059167E0,1.863175507E0,-1.213376770E0,2.818039856E0,3.589575850E0
4.594006167E0,2.349065094E0,-1.601369934E0,2.061363373E0,3.511653661E0
4.603954167E0,2.313738556E0,-2.093546448E0,1.181044006E0,3.336343474E0
4.613901167E0,1.863774261E0,-2.605481873E0,2.109114075E-1,3.210400895E0
4.623849167E0,1.172062683E0,-3.105142822E0,-7.162605286E-1,3.395389819E0
4.633796167E0,4.622387695E-1,-3.544329529E0,-1.537303162E0,3.890917308E0
4.643743167E0,-1.480421448E-1,-3.848497009E0,-2.270927582E0,4.471013061E0
4.653691167E0,-5.731581116E-1,-4.008813629E0,-2.875370636E0,4.966573590E0
4.663638167E0,-7.765850830E-1,-3.978277130E0,-3.112926636E0,5.110781306E0
4.673586167E0,-8.797206116E-1,-3.825744324E0,-3.195554810E0,5.061797954E0
4.683533167E0,-9.848020935E-1,-3.673810272E0,-3.262315979E0,5.010930315E0
4.693480167E0,-1.050515442E0,-3.543581085E0,-3.407064972E0,5.026792349E0
4.703428167E0,-1.094673615E0,-3.422033844E0,-3.551664276E0,5.052023860E0
4.713375167E0,-1.080602875E0,-3.268902283E0,-3.495980072E0,4.906658881E0
4.723323167E0,-1.002615051E0,-3.002905426E0,-3.119063873E0,4.444236423E0
4.733270167E0,-8.843609619E-1,-2.632425842E0,-2.549498291E0,3.769841066E0
4.743217167E0,-8.050259399E-1,-2.249821472E0,-2.037263489E0,3.140096486E0
4.753165167E0,-7.472460938E-1,-1.934127960E0,-1.717528381E0,2.692421110E0
4.763112167E0,-6.444099426E-1,-1.626367950E0,-1.404229889E0,2.243256219E0
4.773060167E0,-4.956193542E-1,-1.265767822E0,-1.052311707E0,1.719059816E0
4.783007167E0,-1.887574768E-1,-7.539820862E-1,-6.497987366E-1,1.013092676E0
4.792954167E0,3.076103210E-1,-1.330732727E-1,-2.296224976E-1,4.062746570E-1
4.802902167E0,9.234297180E-1,4.529580688E-1,1.919009399E-1,1.046288405E0
4.812849167E0,1.532812500E0,1.065783691E0,4.640350342E-1,1.923730114E0
4.822797167E0,2.058070221E0,1.782942352E0,5.285508728E-1,2.773788473E0
4.832744167E0,2.113904114E0,2.956052856E0,2.863545227E-1,3.645385851E0
4.842691167E0,7.277865601E-1,4.496798859E0,-2.420466614E-1,4.561738686E0
4.852639167E0,-1.519789581E0,6.357429657E0,-8.699908447E-1,6.594206266E0
4.862586167E0,-2.663710785E0,8.474327545E0,-1.294358368E0,8.976911834E0
4.872534167E0,-2.735561371E0,1.059152481E1,-9.428892517E-1,1.097965090E1
4.882481167E0,-2.673590240E0,1.356988129E1,4.784051514E-1,1.383902577E1
4.892428167E0,-1.382075958E0,1.743723907E1,2.434986420E0,1.766059454E1
4.902376167E0,4.697232056E-1,2.120699982E1,5.273234253E0,2.185782424E1
4.912323167E0,2.394420776E0,2.441273346E1,8.742569733E0,2.604126209E1
4.922271167E0,4.237088928E0,2.721236160E1,1.106753494E1,2.968090087E1
4.932218167E0,4.726421356E0,3.047901855E1,1.186777084E1,3.304774751E1
4.942165167E0,4.716092834E0,3.413516556E1,1.252625153E1,3.666548836E1
4.952113167E0,6.890321503E0,3.748100784E1,1.345911163E1,4.041596424E1
4.962060167E0,9.494306488E0,3.940271164E1,1.458626770E1,4.307522195E1
4.972008167E0,1.044677582E1,3.953279114E1,1.542976364E1,4.370416806E1
4.981955167E0,9.661359100E0,3.795492233E1,1.566447556E1,4.218167592E1
4.991902167E0,7.349566498E0,3.479544250E1,1.577554459E1,3.890509933E1
5.001850167E0,3.730242920E0,3.108136597E1,1.557675797E1,3.496571766E1
5.011797167E0,7.896080017E-1,2.736309814E1,1.470601868E1,3.107458135E1
5.021745167E0,-1.095422058E0,2.363225647E1,1.312949707E1,2.705674017E1
5.031692167E0,-1.855242004E0,2.021531204E1,1.112351852E1,2.314807612E1
5.041639167E0,-1.810934143E0,1.701347031E1,8.953032074E0,1.931047482E1
5.051587167E0,-1.792821808E0,1.410876068E1,6.767576752E0,1.575028359E1
5.061534167E0,-1.613943787E0,1.138128250E1,4.741090851E0,1.243448223E1
5.071482167E0,-1.081800385E0,9.066196747E0,3.034040680E0,9.621414572E0
5.081429167E0,-5.282514954E-1,7.123835907E0,1.894759827E0,7.390412876E0
5.091376167E0,-1.727407837E-1,5.371130676E0,1.296454010E0,5.528080781E0
5.101324167E0,2.496807861E-1,3.763473816E0,1.137334900E0,3.939493157E0
5.111271167E0,6.170169067E-1,2.374961243E0,1.270857239E0,2.763372738E0
5.121219167E0,7.466473389E-1,1.273102570E0,1.510658569E0,2.111956845E0
5.131166167E0,6.387217712E-1,3.670367432E-1,1.671873322E0,1.826976156E0
5.141113167E0,4.578977966E-1,-4.466711426E-1,1.725910950E0,1.840639592E0
5.151061167E0,4.837939453E-1,-1.122366028E0,1.642833710E0,2.047599736E0
5.161008167E0,8.379574585E-1,-1.531165924E0,1.651964722E0,2.403253884E0
5.170956167E0,1.260528717E0,-1.742825775E0,1.545386353E0,2.648507751E0
5.180903167E0,1.382674713E0,-2.154320068E0,9.324110413E-1,2.724385191E0
5.190850167E0,1.134490814E0,-2.709814911E0,-2.350112915E-1,2.947099687E0
5.200798167E0,6.286926270E-1,-3.333867188E0,-1.650318146E0,3.772727770E0
5.210745167E0,5.912704468E-2,-3.998934174E0,-2.875819702E0,4.925983099E0
5.220693167E0,-3.915856934E-1,-4.433779907E0,-3.752097473E0,5.821510033E0
5.230640167E0,-6.979985046E-1,-4.608616333E0,-4.306843872E0,6.346294238E0
5.240587167E0,-1.094374237E0,-4.701423340E0,-4.483476562E0,6.588064851E0
5.250535167E0,-1.302591248E0,-4.725822601E0,-4.258045349E0,6.493157430E0
5.260482167E0,-1.287023621E0,-4.644391937E0,-3.712130585E0,6.083314865E0
5.270430167E0,-1.285826111E0,-4.602479095E0,-2.857108612E0,5.567695415E0
5.280377167E0,-1.493444366E0,-4.515659637E0,-2.043400726E0,5.176586188E0
5.290324167E0,-1.770667877E0,-4.115990753E0,-1.399739227E0,4.694242699E0
5.300272167E0,-1.654060364E0,-3.636088715E0,-8.629554749E-1,4.086777334E0
5.310219167E0,-1.301842804E0,-3.042572937E0,-3.969744873E-1,3.333111685E0
5.320167167E0,-1.355880432E0,-2.339335327E0,-9.445358276E-2,2.705517141E0
5.330114167E0,-1.050365753E0,-1.512305145E0,2.761756897E-1,1.861882939E0
5.340061167E0,-2.869532776E-1,-6.695576477E-1,8.391549683E-1,1.111229359E0
5.350009167E0,2.974314880E-1,1.969903564E-1,1.495540009E0,1.537501417E0
5.359956167E0,8.195457458E-1,9.422904968E-1,1.848506012E0,2.230816238E0
5.369904167E0,9.996212769E-1,1.820663910E0,1.922901306E0,2.830478617E0
5.379850542E0,4.915777588E-1,2.843187561E0,1.541344757E0,3.271254784E0
5.389797542E0,-2.935395813E-1,3.872596893E0,3.429368591E-1,3.898817497E0
5.399745542E0,-9.717791748E-1,4.814138947E0,-1.157093811E0,5.045706556E0
5.409692542E0,-1.725312195E0,5.781577148E0,-1.844314728E0,6.309107172E0
5.419640542E0,-2.405497742E0,6.922504578E0,-1.552272034E0,7.491130588E0
5.429587542E0,-2.213297424E0,8.840615845E0,-4.144880676E-1,9.122881911E0
5.439535542E0,-7.300318909E-1,1.147438889E1,1.819167023E0,1.164061491E1
5.449482542E0,1.658101959E0,1.494626907E1,4.952601013E0,1.583251459E1
5.459429542E0,4.110152893E0,1.909968201E1,8.246052246E0,2.120586210E1
5.469377542E0,6.043981476E0,2.338766510E1,1.002854553E1,2.615500557E1
5.479324542E0,7.282505951E0,2.758433807E1,1.041713745E1,3.037181839E1
5.489271542E0,7.547454987E0,3.135424850E1,1.076456497E1,3.399895344E1
5.499219542E0,7.819289703E0,3.524510742E1,1.176179123E1,3.796970663E1
5.509166542E0,1.068029022E1,4.005745010E1,1.311497726E1,4.348184146E1
5.519114542E0,1.421024963E1,4.415966949E1,1.389066422E1,4.842476801E1
5.529061542E0,1.645977173E1,4.490751434E1,1.311782135E1,4.959522323E1
5.539008542E0,1.777029648E1,4.313220612E1,1.020772293E1,4.775320145E1
5.548956542E0,1.582329529E1,3.882940384E1,6.268813934E0,4.239572271E1
5.558903542E0,1.141615997E1,3.354359573E1,2.631976776E0,3.553067442E1
5.568851542E0,7.583679657E0,2.817979980E1,3.448828125E-1,2.918445234E1
5.578798542E0,4.806355133E0,2.393657364E1,8.801696777E-2,2.441451114E1
5.588746542E0,2.825374603E0,2.066138443E1,1.852397919E0,2.093578100E1
5.598693542E0,1.462608490E0,1.760773453E1,3.971990204E0,1.810934137E1
5.608640542E0,4.034111023E-1,1.471095840E1,5.256020050E0,1.562692498E1
5.618588542E0,-3.296145630E-1,1.216190918E1,5.533243561E0,1.336553272E1
5.628535542E0,-7.083270264E-1,9.698930969E0,4.750072174E0,1.082285428E1
5.638483542E0,-8.470884705E-1,7.394473114E0,3.599864044E0,8.267696937E0
5.648430542E0,-8.566685486E-1,5.316793671E0,2.265538788E0,5.842503054E0
5.658377542E0,-7.815248108E-1,3.566034393E0,1.197958832E0,3.842198288E0
5.668325542E0,-4.604425049E-1,2.116448822E0,4.688250732E-1,2.216113685E0
5.678272542E0,1.902543640E-1,1.161734161E0,1.202000427E-1,1.183330484E0
5.688220542E0,1.040486298E0,5.569917297E-1,1.306782532E-1,1.187404029E0
5.698167542E0,1.772164764E0,-4.565505981E-2,5.204676819E-1,1.847576506E0
5.708114542E0,2.129022675E0,-7.518864441E-1,9.047186279E-1,2.432403455E0
5.718062542E0,2.186652832E0,-1.387913818E0,9.117539978E-1,2.745733186E0
5.728009542E0,1.930236053E0,-1.916464691E0,7.312294006E-1,2.816619351E0
5.737957542E0,1.273851013E0,-2.446662140E0,3.167413330E-1,2.776540492E0
5.747904542E0,3.138972473E-1,-3.006048889E0,-2.820135498E-1,3.035521874E0
5.757851542E0,-7.890092468E-1,-3.624862061E0,-9.870474243E-1,3.838804914E0
5.767799542E0,-1.669777679E0,-4.094734955E0,-1.458417206E0,4.656392659E0
5.777746542E0,-2.334694977E0,-4.307592316E0,-1.620380402E0,5.160599271E0
5.787694542E0,-2.861898651E0,-4.516557770E0,-1.460363159E0,5.542780758E0
5.797641542E0,-2.913690948E0,-4.754113770E0,-1.206491089E0,5.704981457E0
5.807588542E0,-2.982098694E0,-4.847220154E0,-8.393046570E-1,5.752641841E0
5.817536542E0,-3.074606323E0,-4.744084625E0,-4.043092346E-1,5.667716377E0
5.827483542E0,-3.161276093E0,-4.437372437E0,-7.948471069E-2,5.448876810E0
5.837431542E0,-3.073259125E0,-3.924538879E0,3.038681030E-2,4.984761822E0
5.847378542E0,-2.841241608E0,-3.417243805E0,1.401086426E-1,4.446328770E0
5.857325542E0,-2.410437469E0,-2.828518066E0,1.288819885E-1,3.718512312E0
5.867273542E0,-1.715582428E0,-2.039359131E0,-6.212081909E-2,2.665720865E0
5.877220542E0,-8.713380432E-1,-1.103804626E0,-2.177970886E-1,1.423042589E0
5.887168542E0,-1.502874756E-1,-2.305206299E-1,-2.348616028E-1,3.617817831E-1
5.897115542E0,5.396278381E-1,6.321354675E-1,-1.785786438E-1,8.501081020E-1
5.907062542E0,1.229393463E0,1.203048248E0,-2.481838989E-1,1.737909268E0
5.917010542E0,1.780397644E0,1.841470642E0,1.143621826E-1,2.563963456E0
5.926957542E0,2.367476807E0,2.821183319E0,9.574090576E-1,3.805345432E0
5.936905542E0,2.847678223E0,2.925067291E0,1.036594391E0,4.211866314E0
5.946852542E0,3.054098969E0,3.434008942E0,1.390308838E0,4.801343206E0
5.956800542E0,2.763702850E0,4.292324066E0,1.539847870E0,5.332281950E0
5.966747542E0,1.863774261E0,4.942422180E0,1.461560669E0,5.480634187E0
5.976694542E0,7.390132141E-1,5.400918732E0,1.368753662E0,5.620458190E0
5.986642542E0,-7.725434875E-1,6.051016846E0,8.384065247E-1,6.157479501E0
5.996589542E0,-1.827699280E0,7.229516144E0,4.769082642E-1,7.472203813E0
6.006537542E0,-1.203796692E0,9.523346100E0,7.643106079E-1,9.629507678E0
6.016484542E0,9.624984741E-1,1.277593231E1,2.025737457E0,1.297129377E1
6.026431542E0,3.349135437E0,1.598810257E1,4.383783875E0,1.691312192E1
6.036379542E0,4.466861115E0,1.887649612E1,6.521488495E0,2.046472004E1
6.046326542E0,4.099524994E0,2.126822250E1,8.135581970E0,2.313722299E1
6.056274542E0,3.185076599E0,2.375200745E1,9.426796875E0,2.575203041E1
6.066221542E0,2.505489807E0,2.670476715E1,1.085063599E1,2.893368917E1
6.076168542E0,2.112556915E0,3.012096313E1,1.268761597E1,3.275226581E1
6.086116542E0,2.832110596E0,3.363176239E1,1.515134262E1,3.699566833E1
6.096063542E0,4.984335022E0,3.642285828E1,1.710103821E1,4.054520574E1
6.106011542E0,7.645052032E0,3.800072708E1,1.788525742E1,4.268939578E1
6.115958542E0,9.673783264E0,3.820819565E1,1.639136398E1,4.268635743E1
6.125905542E0,1.019170624E1,3.613635406E1,1.282353333E1,3.967555883E1
6.135853542E0,8.937464447E0,3.230641846E1,8.336613922E0,3.454102019E1
6.145800542E0,6.604565735E0,2.798191132E1,3.934418335E0,2.901874045E1
6.155748542E0,3.960763550E0,2.403042847E1,8.641529846E-1,2.436997949E1
6.165695542E0,2.076032867E0,2.077200439E1,-3.721261597E-1,2.087880641E1
6.175642542E0,1.053359528E0,1.797537003E1,-1.282832336E-1,1.800666406E1
6.185590542E0,4.113446045E-1,1.539054520E1,5.971083069E-1,1.540761578E1
6.195537542E0,-2.954855347E-1,1.290511368E1,1.196012878E0,1.296378485E1
6.205485542E0,-7.232958984E-1,1.085782104E1,1.463356934E0,1.097983826E1
6.215432542E0,-7.794291687E-1,8.971593475E0,1.769769745E0,9.177640452E0
6.225379542E0,-4.567002869E-1,7.296576691E0,2.127226410E0,7.614046149E0
6.235327542E0,-9.385482788E-2,5.848188629E0,2.474204865E0,6.350732925E0
6.245274542E0,4.031117249E-1,4.574636993E0,2.866838379E0,5.413738540E0
6.255222542E0,1.528471527E0,3.579356689E0,3.234922943E0,5.060903671E0
6.265169542E0,3.350931702E0,3.156785431E0,3.902534637E0,6.035214505E0
6.275116542E0,4.419709167E0,3.024610291E0,4.217180328E0,6.816649210E0
6.285064542E0,4.419709167E0,2.741249542E0,3.752546539E0,6.413258431E0
6.295011542E0,3.991898804E0,2.140099640E0,2.697540436E0,5.271812490E0
6.304959542E0,3.251388702E0,1.253343658E0,1.427731018E0,3.765742248E0
6.314906542E0,2.454895020E0,3.315605164E-1,1.520837402E-1,2.481848383E0
6.324854542E0,1.546583862E0,-4.604425049E-1,-1.068029022E0,1.935100756E0
6.334801542E0,6.134243774E-1,-1.198557587E0,-2.051034851E0,2.453481957E0
6.344748542E0,-2.501298523E-1,-1.961071930E0,-2.759062500E0,3.394229506E0
6.354696542E0,-9.788145447E-1,-2.807411957E0,-3.011587372E0,4.231937890E0
6.364643542E0,-1.635049896E0,-3.444936218E0,-2.938239899E0,4.813961717E0
6.374592167E0,-2.151026917E0,-3.750301208E0,-2.689756622E0,5.091803869E0
6.384539167E0,-2.385439453E0,-3.810625763E0,-2.303559723E0,5.051492600E0
6.394486167E0,-2.446811829E0,-3.729344788E0,-1.847158813E0,4.827721652E0
6.404434167E0,-2.334694977E0,-3.478316803E0,-1.337019653E0,4.397398091E0
6.414381167E0,-2.148482208E0,-3.022514648E0,-8.605604553E-1,3.806853674E0
6.424329167E0,-2.008074188E0,-2.578837280E0,-4.296066284E-1,3.296562682E0
6.434276167E0,-1.876946869E0,-2.173330536E0,8.831634521E-3,2.871649903E0
6.444223167E0,-1.624571686E0,-1.693278809E0,4.007167053E-1,2.380546190E0
6.454171167E0,-1.174607391E0,-1.240171051E0,6.623725891E-1,1.832065557E0
6.464118167E0,-6.782395935E-1,-8.372090149E-1,8.397537231E-1,1.366057904E0
6.474066167E0,-1.983375549E-1,-3.519181824E-1,9.201365662E-1,1.004905714E0
6.484013167E0,3.558100891E-1,-1.077758789E-2,7.747888184E-1,8.526515636E-1
6.493960167E0,9.572593689E-1,2.456391907E-1,3.881428528E-1,1.061762208E0
6.503908167E0,1.524429932E0,5.649252319E-1,-1.101708984E-1,1.629467631E0
6.513855167E0,2.270628204E0,8.982820129E-1,-3.962260437E-1,2.473794271E0
6.523803167E0,2.744393005E0,1.485660553E0,-3.023712158E-1,3.135332295E0
6.533750167E0,2.743644562E0,2.305505676E0,-1.074765015E-1,3.585316318E0
6.543698167E0,2.096689911E0,3.227737885E0,1.242416382E-2,3.848968017E0
6.553645167E0,5.716612244E-1,4.232897644E0,-4.840933228E-1,4.298670186E0
6.563592167E0,-1.129700775E0,5.504203949E0,-1.204694824E0,5.746631585E0
6.573540167E0,-2.375559998E0,7.052883453E0,-1.636696472E0,7.620054176E0
6.583487167E0,-2.174677734E0,8.968899078E0,-8.901988220E-1,9.271614092E0
6.593435167E0,-3.866459656E-1,1.133921997E1,1.722917175E0,1.147588115E1
6.603382167E0,2.109712830E0,1.410397064E1,5.172344055E0,1.516990505E1
6.613329167E0,3.908073120E0,1.701197342E1,8.569230194E0,1.944510173E1
6.623277167E0,4.318818970E0,1.930415680E1,1.056712555E1,2.242692153E1
6.633224167E0,3.675606537E0,2.140818146E1,1.071980804E1,2.422260517E1
6.643172167E0,2.326761475E0,2.407608353E1,9.826465759E0,2.610806477E1
6.653119167E0,1.588047638E0,2.716341339E1,1.000579285E1,2.899118509E1
6.663066167E0,2.471211090E0,3.085129440E1,1.187720123E1,3.315082442E1
6.673014167E0,4.618346100E0,3.498180496E1,1.422611664E1,3.804521249E1
6.682961167E0,7.838000793E0,3.815550522E1,1.581745743E1,4.204127489E1
6.692909167E0,1.008662476E1,3.971720764E1,1.553813828E1,4.382499655E1
6.702856167E0,1.089165070E1,3.903313019E1,1.351883743E1,4.271969420E1
6.712803167E0,9.958042145E0,3.610551819E1,1.097442856E1,3.902831189E1
6.722751167E0,7.869285736E0,3.247182449E1,7.797285461E0,3.430951332E1
6.732698167E0,5.686524811E0,2.842019989E1,5.014272766E0,2.941406564E1
6.742646167E0,3.779640198E0,2.484338791E1,3.537144470E0,2.537697763E1
6.752593167E0,2.180365906E0,2.143392792E1,3.284619598E0,2.179348498E1
6.762540167E0,7.707472229E-1,1.805395660E1,3.436104584E0,1.839418971E1
6.772488167E0,-3.845503235E-1,1.467787720E1,3.635190582E0,1.512622122E1
6.782435167E0,-1.101259918E0,1.164009430E1,3.602408752E0,1.223445616E1
6.792383167E0,-1.442250824E0,8.969048767E0,3.228785706E0,9.641005153E0
6.802330167E0,-1.270258484E0,6.878945160E0,2.757266235E0,7.519039847E0
6.812278167E0,-6.077362061E-1,5.490282898E0,2.469265137E0,6.050604921E0
6.822225167E0,8.711883545E-2,4.403093719E0,2.229164429E0,4.935990077E0
6.832172167E0,6.888674927E-1,3.322341156E0,2.066303101E0,3.972668836E0
6.842120167E0,1.374591522E0,2.358495483E0,1.879641266E0,3.314370843E0
6.852067167E0,2.062710571E0,1.639241180E0,1.737436981E0,3.156037676E0
6.862015167E0,2.663261719E0,1.161734161E0,1.706152039E0,3.369502044E0
6.871962167E0,3.341800690E0,8.150550842E-1,1.577270050E0,3.784141574E0
6.881909167E0,3.730093231E0,5.195695496E-1,1.374741211E0,4.009172162E0
6.891857167E0,3.684438171E0,1.718426514E-1,9.454339600E-1,3.807684324E0
6.901804167E0,2.963986359E0,-3.724255371E-1,-3.427871704E-2,2.987489070E0
6.911752167E0,1.681154022E0,-1.186582489E0,-1.643881531E0,2.633743218E0
6.921699167E0,1.664538574E-1,-2.321821747E0,-3.208877106E0,3.964272366E0
6.931646167E0,-1.126707001E0,-3.695664825E0,-4.283342743E0,5.768399451E0
6.941594167E0,-2.170486450E0,-4.889282684E0,-4.546645203E0,7.020546930E0
6.951541167E0,-2.872526550E0,-5.572462006E0,-4.058360596E0,7.468201411E0
6.961489167E0,-3.062780914E0,-5.789211273E0,-3.265758820E0,7.318522717E0
6.971436167E0,-2.980901184E0,-5.622458038E0,-2.396516418E0,6.800080676E0
6.981384167E0,-2.934946747E0,-5.367987213E0,-1.632954254E0,6.332119607E0
6.991331167E0,-2.861748962E0,-4.865631866E0,-8.725355530E-1,5.711855992E0
7.001278167E0,-2.827919312E0,-4.217629395E0,-3.821553040E-1,5.092304785E0
7.011226167E0,-2.844983826E0,-3.537743225E0,-2.007325745E-1,4.544211005E0
7.021173167E0,-2.683320007E0,-2.797233124E0,-1.089733887E-1,3.877704812E0
7.031121167E0,-2.503244476E0,-2.129771118E0,-1.272354126E-1,3.289125533E0
7.041068167E0,-2.339485016E0,-1.463506622E0,-2.433938599E-1,2.770249509E0
7.051015167E0,-1.907782745E0,-8.545729065E-1,-2.402503967E-1,2.104198211E0
7.060963167E0,-1.070124664E0,-2.335144043E-1,-4.894821167E-2,1.096399426E0
7.070910167E0,-1.350192261E-1,4.909790039E-1,2.625540161E-1,5.729094039E-1
7.080858167E0,8.393046570E-1,1.398691406E0,7.185058594E-1,1.782419880E0
7.090805167E0,1.920805664E0,2.580633545E0,1.170416107E0,3.423308014E0
7.100752167E0,2.877017212E0,3.871399384E0,1.627565460E0,5.090572714E0
7.110700167E0,3.134481812E0,5.084476776E0,1.991758118E0,6.296346616E0
7.120647167E0,2.406246185E0,5.989494781E0,1.912423096E0,6.732119320E0
7.130595167E0,1.238374786E0,6.663393402E0,1.577569427E0,6.958671500E0
7.140542167E0,-1.326242065E-1,7.159761200E0,1.252894592E0,7.269767154E0
7.150489167E0,-1.635049896E0,7.462880859E0,6.480024719E-1,7.667325876E0
7.160437167E0,-2.541415100E0,8.097111969E0,2.444416809E-1,8.490098037E0
7.170384167E0,-2.096091156E0,9.469458160E0,1.130898285E0,9.764382567E0
7.180332167E0,-3.150947571E-1,1.154549103E1,3.531456299E0,1.207761696E1
7.190279167E0,1.487756195E0,1.400008667E1,6.405180359E0,1.546745553E1
7.200227167E0,2.544708252E0,1.648237473E1,8.628506927E0,1.877752243E1
7.210174167E0,2.790048065E0,1.869192993E1,8.980724487E0,2.092429270E1
7.220121167E0,2.296674042E0,2.067171295E1,7.784561920E0,2.220796777E1
7.230069167E0,1.939666443E0,2.285597076E1,6.268813934E0,2.377931314E1
7.240016167E0,1.694326630E0,2.474025238E1,5.709876251E0,2.544707286E1
7.249964167E0,2.272424469E0,2.736085281E1,6.583609314E0,2.823338611E1
7.259911167E0,4.572691040E0,3.096939880E1,9.105415192E0,3.260248076E1
7.269858167E0,7.938292236E0,3.397410049E1,1.179202835E1,3.682808603E1
7.279806167E0,1.013662079E1,3.615341858E1,1.327768890E1,3.982609419E1
7.289753167E0,1.129356491E1,3.719300674E1,1.307051971E1,4.100857038E1
7.299701167E0,1.170625671E1,3.689976654E1,1.152947433E1,4.039254876E1
7.309648167E0,1.117186798E1,3.533177719E1,9.333391113E0,3.821331317E1
7.319596167E0,9.890233154E0,3.280413345E1,7.306755524E0,3.503307808E1
7.329543167E0,7.906408539E0,2.934183334E1,5.862708435E0,3.094876137E1
7.339490167E0,5.797294464E0,2.560260910E1,4.932991791E0,2.671023444E1
7.349438167E0,4.053570557E0,2.186667801E1,4.395609283E0,2.266946013E1
7.359385167E0,2.669548645E0,1.826621521E1,4.149521027E0,1.892087823E1
7.369333167E0,1.680255890E0,1.502305939E1,4.064797211E0,1.565369444E1
7.379280500E0,8.894503784E-1,1.196566727E1,3.886817322E0,1.261252013E1
7.389227500E0,4.080514526E-1,9.120982819E0,3.394790497E0,9.740812907E0
7.399175500E0,4.370910645E-2,6.503226471E0,2.828817444E0,7.091972444E0
7.409122500E0,-1.875599670E-1,4.269870758E0,2.356848907E0,4.880749103E0
7.419070500E0,-1.972897339E-1,2.508782959E0,2.107467499E0,3.282428131E0
7.429017500E0,-2.122586060E-1,1.103505249E0,1.907782745E0,2.214139235E0
7.438964500E0,-1.020877075E-1,-9.669891357E-2,1.787882080E0,1.793403165E0
7.448912500E0,1.595681763E-1,-9.801617432E-1,1.657203827E0,1.931968832E0
7.458859500E0,7.186555481E-1,-1.268162842E0,1.536854095E0,2.118165079E0
7.468807500E0,1.428180084E0,-1.412013702E0,1.346899109E0,2.418184910E0
7.478754500E0,1.913620605E0,-1.645378418E0,9.505233765E-1,2.696795997E0
7.488701500E0,1.885928192E0,-1.935774536E0,3.059637451E-1,2.719845954E0
7.498649500E0,1.445693665E0,-2.411036224E0,-7.099736023E-1,2.899515194E0
7.508596500E0,9.268725586E-1,-3.121758270E0,-1.940564575E0,3.790812355E0
7.518544500E0,3.576063538E-1,-3.930975494E0,-3.071163483E0,5.001249422E0
7.528491500E0,-3.438349915E-1,-4.672982483E0,-4.092639313E0,6.221308892E0
7.538439500E0,-1.020877075E0,-5.194198608E0,-4.691543884E0,7.073363641E0
7.548386500E0,-1.451681213E0,-5.444328461E0,-4.597239990E0,7.272049660E0
7.558333500E0,-1.701212311E0,-5.405110016E0,-3.917802887E0,6.889014231E0
7.568281500E0,-1.977388000E0,-5.090614014E0,-2.891836395E0,6.179573778E0
7.578228500E0,-2.206411743E0,-4.576433258E0,-1.871857452E0,5.414410814E0
7.588176500E0,-2.396815796E0,-4.157304840E0,-1.121916962E0,4.928144393E0
7.598123500E0,-2.591560822E0,-3.801794128E0,-6.057902527E-1,4.640776650E0
7.608070500E0,-2.757864990E0,-3.418591003E0,-3.052153015E-1,4.402924044E0
7.618018500E0,-2.701731720E0,-2.903512115E0,-1.227447510E-2,3.966092227E0
7.627965500E0,-2.437381439E0,-2.277364197E0,1.498384094E-1,3.339111785E0
7.637913500E0,-2.110311584E0,-1.708846436E0,1.948947144E-1,2.722417138E0
7.647860500E0,-1.712588654E0,-1.088536377E0,2.562670898E-1,2.045371399E0
7.657808500E0,-1.052461395E0,-3.942800903E-1,3.294648743E-1,1.171186954E0
7.667755500E0,-2.475851440E-1,1.968406677E-1,3.820056152E-1,4.959565930E-1
7.677702500E0,4.284091187E-1,6.227050781E-1,3.055146790E-1,8.152516215E-1
7.687650500E0,1.045276337E0,1.018332367E0,-6.137237549E-2,1.460606038E0
7.697597500E0,1.331331482E0,1.268462219E0,-6.453080750E-1,1.948810516E0
7.707545500E0,1.181493073E0,1.484463043E0,-1.515897675E0,2.428477335E0
7.717492500E0,1.077309723E0,2.084714813E0,-2.172432404E0,3.197826549E0
7.727439500E0,7.785310364E-1,3.080593872E0,-2.404599609E0,3.984754504E0
7.737387500E0,4.532574463E-1,4.420756989E0,-2.517464905E0,5.107461621E0
7.747334500E0,4.499642944E-1,6.200406189E0,-2.325713654E0,6.637503203E0
7.757282500E0,1.061742096E0,8.631201324E0,-1.267564087E0,8.788154032E0
7.767229500E0,2.144290924E0,1.171389084E1,1.239721985E0,1.197289158E1
7.777177500E0,3.536845093E0,1.514445694E1,5.673501892E0,1.655453028E1
7.787124500E0,5.147645416E0,1.809152847E1,1.132380203E1,2.195518500E1
7.797071500E0,5.924230499E0,2.033236862E1,1.564576447E1,2.633043233E1
7.807019500E0,5.871091003E0,2.222548187E1,1.759665756E1,2.894968241E1
7.816966500E0,5.350024567E0,2.348720810E1,1.759336441E1,2.982948505E1
7.826914500E0,4.930447083E0,2.448069214E1,1.702514603E1,3.022365288E1
7.836861500E0,5.069208527E0,2.603670639E1,1.707304642E1,3.154514018E1
7.846808500E0,5.718408508E0,2.794329163E1,1.844374603E1,3.396615242E1
7.856756500E0,6.906188507E0,2.989987289E1,1.967104385E1,3.645062146E1
7.866703500E0,7.519463196E0,3.039818665E1,1.952479797E1,3.690270741E1
7.876651500E0,6.713838501E0,2.986798920E1,1.828612381E1,3.565886608E1
7.886598500E0,6.278843079E0,2.963118164E1,1.532004181E1,3.394310647E1
7.896545500E0,5.694757690E0,2.933824081E1,1.230261658E1,3.231898844E1
7.906493500E0,4.662055206E0,2.869368118E1,1.003393433E1,3.075291753E1
7.916440500E0,3.966900787E0,2.753209671E1,9.503736877E0,2.939512997E1
7.926388500E0,3.390599213E0,2.593521744E1,1.016042130E1,2.806003969E1
7.936335500E0,3.191962280E0,2.396755920E1,1.097457825E1,2.655322740E1
7.946283500E0,3.132086792E0,2.190514801E1,1.135134476E1,2.486963017E1
7.956230500E0,3.155138855E0,1.981534378E1,1.093027039E1,2.284892910E1
7.966177500E0,3.189267883E0,1.785502029E1,9.722432098E0,2.057908806E1
7.976125500E0,3.046315155E0,1.579769852E1,8.017477570E0,1.797574090E1
7.986072500E0,2.998115387E0,1.364083374E1,6.320456543E0,1.533001017E1
7.996020500E0,2.892584839E0,1.159234360E1,4.873864746E0,1.290364424E1
8.005967500E0,2.831362152E0,9.696535950E0,3.724105682E0,1.076607562E1
8.015914500E0,2.866539001E0,8.025560760E0,2.802172852E0,8.971000170E0
8.025862500E0,2.936144257E0,6.521189117E0,2.036964111E0,7.436132960E0
8.035809500E0,3.087180176E0,5.149291992E0,1.536704407E0,6.197366367E0
8.045757500E0,3.168760529E0,3.893852692E0,1.234482880E0,5.169823987E0
8.055704500E0,3.230731659E0,2.755170593E0,9.988728333E-1,4.361919186E0
8.065652500E0,3.519481201E0,1.770817566E0,9.178912354E-1,4.045376014E0
8.075599500E0,3.735631714E0,9.666897583E-1,8.773255920E-1,3.957162315E0
8.085546500E0,3.661386108E0,2.215393066E-1,6.065386963E-1,3.717891484E0
8.095494500E0,3.476819916E0,-4.460723877E-1,5.224136353E-2,3.505707698E0
8.105441500E0,3.025209045E0,-1.196761322E0,-6.953041077E-1,3.326796542E0
8.115389500E0,2.273172913E0,-2.100581818E0,-1.485959930E0,3.433341809E0
8.125336500E0,1.334924011E0,-3.053200836E0,-2.128274231E0,3.953935845E0
8.135283500E0,2.389031982E-1,-4.173471222E0,-2.674188995E0,4.962481593E0
8.145231500E0,-8.764274597E-1,-5.205275574E0,-2.835403748E0,5.991872270E0
8.155178500E0,-1.565744019E0,-5.037175140E0,-3.190764771E0,6.164873685E0
8.165126500E0,-1.742077332E0,-5.593717804E0,-3.257376251E0,6.703358288E0
8.175073500E0,-2.060315552E0,-5.672304382E0,-2.463277588E0,6.518256949E0
8.185020500E0,-2.574047241E0,-5.500312042E0,-1.781744843E0,6.328804504E0
8.194968500E0,-2.828518066E0,-5.527106323E0,-1.693129120E0,6.435534553E0
8.204915500E0,-2.928061066E0,-5.442083130E0,-1.781744843E0,6.431518101E0
8.214863500E0,-2.940335541E0,-5.129533081E0,-1.881138153E0,6.204543776E0
8.224810500E0,-2.788551178E0,-4.874014435E0,-1.894011383E0,5.926155035E0
8.234758500E0,-2.691403198E0,-4.635709991E0,-1.766177216E0,5.643832054E0
8.244705500E0,-2.453098755E0,-4.091441803E0,-1.531764679E0,5.010378485E0
8.254652500E0,-1.681303711E0,-3.395988007E0,-1.277593231E0,3.998970014E0
8.264600500E0,-6.896159363E-1,-2.673889618E0,-1.082997894E0,2.966165920E0
8.274547500E0,2.421963501E-1,-2.080074463E0,-8.041278076E-1,2.243209837E0
8.284495500E0,9.389973450E-1,-1.518741760E0,-7.177574158E-1,1.924439725E0
8.294442500E0,1.558259583E0,-9.279203796E-1,-6.237528992E-1,1.917883426E0
8.304390500E0,1.987716522E0,-4.141886902E-1,-4.688250732E-1,2.083834493E0
8.314337500E0,2.128124542E0,1.962419128E-1,-1.025367737E-1,2.139611821E0
8.324284500E0,2.335443420E0,1.114282837E0,5.694158936E-1,2.649557825E0
8.334232500E0,2.406246185E0,2.239792328E0,1.398541718E0,3.572479435E0
8.344179500E0,1.806593170E0,3.400778046E0,1.881886597E0,4.286089985E0
8.354127500E0,5.996530151E-1,4.977898407E0,2.111958160E0,5.440535227E0
8.364074500E0,-6.176156616E-1,6.840175781E0,2.217039642E0,7.216974338E0
8.374021375E0,-1.336121521E0,9.257648621E0,2.701432343E0,9.735862335E0
8.383969375E0,-6.676116943E-2,1.242311600E1,4.629572754E0,1.325787359E1
8.393916375E0,3.029849396E0,1.599349136E1,7.824079742E0,1.806067488E1
8.403864375E0,6.010750580E0,1.995620087E1,1.060439804E1,2.338444640E1
8.413811375E0,7.698341217E0,2.359109207E1,1.105570953E1,2.716675902E1
8.423759375E0,7.661517792E0,2.572595261E1,8.429121552E0,2.813491750E1
8.433706375E0,6.286177826E0,2.699411545E1,3.898792419E0,2.798926371E1
8.443653375E0,5.855673065E0,2.862198029E1,6.466552734E-2,2.921490791E1
8.453601375E0,6.287075958E0,2.922507614E1,7.056326294E-1,2.990201192E1
8.463548375E0,8.146808624E0,3.164344711E1,5.385351105E0,3.311616286E1
8.473496375E0,1.163949554E1,3.437526627E1,1.034932846E1,3.773917576E1
8.483443375E0,1.417716843E1,3.604100235E1,1.352557343E1,4.102300686E1
8.493390375E0,1.581865494E1,3.704691055E1,1.395293472E1,4.263083172E1
8.503338375E0,1.623359207E1,3.686803253E1,1.047267197E1,4.162280856E1
8.513285375E0,1.462997681E1,3.419848389E1,5.595364380E0,3.761489896E1
8.523233375E0,1.085392914E1,2.986993515E1,2.198478241E0,3.185677495E1
8.533180375E0,7.306755524E0,2.601110962E1,2.008822632E-1,2.701863900E1
8.543127375E0,5.201084290E0,2.251557861E1,-3.842509460E-1,2.311168983E1
8.553075375E0,3.653602295E0,1.936029007E1,-2.505789185E-1,1.970361467E1
8.563022375E0,2.430196381E0,1.622805359E1,3.125500488E-1,1.641198542E1
8.572970375E0,1.575922852E0,1.320973022E1,1.204694824E0,1.335783647E1
8.582917375E0,1.053658905E0,1.044557831E1,2.159708862E0,1.071842552E1
8.592865375E0,6.369255066E-1,7.940986633E0,2.799029388E0,8.443903619E0
8.602812375E0,4.300556946E-1,5.705834656E0,3.154989166E0,6.534175821E0
8.612759375E0,7.176077271E-1,3.977678375E0,3.606450348E0,5.416952115E0
8.622707375E0,1.253643036E0,2.802771606E0,4.086502075E0,5.111423359E0
8.632654375E0,1.818418579E0,1.998643799E0,4.162394257E0,4.962534545E0
8.642602375E0,2.213447113E0,1.307081909E0,3.766766968E0,4.560300936E0
8.652549375E0,2.088157654E0,5.719606018E-1,3.052602081E0,3.742448501E0
8.662496375E0,1.753753052E0,-1.215472412E-1,2.406844940E0,2.980490910E0
8.672444375E0,1.435963898E0,-8.646020508E-1,1.861079865E0,2.504625178E0
8.682391375E0,1.026265869E0,-1.663041687E0,1.373843079E0,2.388801811E0
8.692339375E0,5.572911072E-1,-2.450554047E0,7.833210754E-1,2.632371634E0
8.702286375E0,-4.041595459E-2,-3.140768738E0,2.619552612E-2,3.141137997E0
8.712234375E0,-7.041357422E-1,-3.719615021E0,-1.060544586E0,3.931424407E0
8.722181375E0,-1.251547394E0,-4.172722778E0,-2.044747925E0,4.812377826E0
8.732128375E0,-1.651216278E0,-4.581522675E0,-2.593656464E0,5.517600843E0
8.742076375E0,-1.831890564E0,-4.597988434E0,-2.756368103E0,5.665234840E0
8.752023375E0,-1.610500946E0,-4.533173218E0,-2.618205414E0,5.477076986E0
8.761971375E0,-1.261875916E0,-4.350852356E0,-2.196083221E0,5.034384626E0
8.771918375E0,-1.075513458E0,-4.106410675E0,-1.754351807E0,4.593156659E0
8.781866375E0,-8.972341919E-1,-3.851490784E0,-1.336420898E0,4.174330038E0
8.791813375E0,-5.813909912E-1,-3.665577393E0,-1.087039490E0,3.867315342E0
8.801760375E0,-2.327659607E-1,-3.604205017E0,-1.144819336E0,3.788810514E0
8.811708375E0,-1.055305481E-1,-3.538341980E0,-1.391805725E0,3.803698705E0
8.821655375E0,-6.002517700E-2,-3.318898315E0,-1.606908417E0,3.687932173E0
8.831603375E0,1.094224548E-1,-2.982098694E0,-1.759441223E0,3.464176570E0
8.841550375E0,4.810995483E-1,-2.644550629E0,-1.763782196E0,3.214970052E0
8.851497375E0,1.037492523E0,-2.419269104E0,-1.443298645E0,3.002060078E0
8.861445375E0,1.558259583E0,-2.201771393E0,-6.954537964E-1,2.785610557E0
8.871392375E0,1.869612122E0,-1.940115509E0,2.393522644E-1,2.704956040E0
8.881340375E0,1.650018768E0,-1.744322662E0,9.021739197E-1,2.564983678E0
8.891287375E0,6.078858948E-1,-1.177451477E0,1.529070282E0,2.023356906E0
8.901234375E0,8.816665649E-2,1.625619507E-1,1.776505737E0,1.786105367E0
8.911182375E0,2.725831604E-1,2.129172363E0,1.632654877E0,2.696894228E0
8.921129375E0,-1.098715210E-1,4.625231781E0,2.133663025E0,5.094836473E0
8.931077375E0,-4.134402466E-1,7.601941681E0,3.030747528E0,8.194259011E0
8.941024375E0,9.575587463E-1,1.185085602E1,5.280569000E0,1.300938569E1
8.950972375E0,3.392694855E0,1.727976654E1,8.990454254E0,1.977192398E1
8.960919375E0,6.424490204E0,2.313633774E1,1.198437836E1,2.683634705E1
8.970866375E0,8.820557556E0,2.823892685E1,1.200698135E1,3.192815100E1
8.980814375E0,9.723928986E0,3.289200073E1,8.393345947E0,3.531128380E1
8.990761375E0,1.064466431E1,3.615940613E1,3.908222809E0,3.789572186E1
9.000709375E0,1.272593628E1,3.930301895E1,1.965412903E0,4.135867020E1
9.010656375E0,1.583931198E1,4.209965332E1,3.602109375E0,4.512471391E1
9.020604375E0,1.770383469E1,4.322995285E1,6.536457367E0,4.716969219E1
9.030551375E0,1.822564957E1,4.227688477E1,9.558373260E0,4.701990841E1
9.040498375E0,1.737377106E1,3.958518219E1,1.154968231E1,4.474628176E1
9.050446375E0,1.460647568E1,3.578099304E1,1.169877228E1,4.037932475E1
9.060393375E0,1.085512665E1,3.133688461E1,1.025891647E1,3.471425469E1
9.070341375E0,7.700586548E0,2.667093750E1,8.500523071E0,2.903268559E1
9.080288375E0,5.655988312E0,2.256542496E1,6.863976288E0,2.425495367E1
9.090235375E0,4.399351501E0,1.901420975E1,5.276078339E0,2.021710831E1
9.100183375E0,3.678899689E0,1.590652222E1,3.749852142E0,1.675151166E1
9.110130375E0,3.234174500E0,1.298145493E1,2.452350311E0,1.360117931E1
9.120078375E0,2.833906860E0,1.034618500E1,1.814975739E0,1.087973846E1
9.130025375E0,2.464325409E0,7.956105194E0,1.659748535E0,8.492777801E0
9.139973375E0,2.063608704E0,5.753435669E0,1.835183716E0,6.381880769E0
9.149920375E0,1.431323547E0,3.869752808E0,2.285148010E0,4.716521527E0
9.159867375E0,9.038204956E-1,2.282453613E0,2.707120514E0,3.654447627E0
9.169815375E0,7.445516968E-1,9.502239990E-1,2.992277527E0,3.226609316E0
9.179762375E0,9.587562561E-1,-3.188369751E-2,3.286116486E0,3.423272073E0
9.189710375E0,1.427132263E0,-7.608677673E-1,3.461401978E0,3.820592874E0
9.199657375E0,1.768123169E0,-1.393302612E0,3.385210419E0,4.065366071E0
9.209604375E0,1.914967804E0,-1.929038544E0,3.053350525E0,4.087938456E0
9.219552375E0,1.706451416E0,-2.446662140E0,2.384541321E0,3.818922541E0
9.229499375E0,1.274000702E0,-2.934647369E0,1.419198761E0,3.499908298E0
9.239447375E0,6.918612671E-1,-3.478915558E0,5.014572144E-1,3.582315565E0
9.249394375E0,1.152603149E-2,-3.883973236E0,-3.893403625E-1,3.903455759E0
9.259342375E0,-4.737648010E-1,-4.187991028E0,-1.160985718E0,4.371682716E0
9.269289375E0,-9.020242310E-1,-4.460274811E0,-1.829645233E0,4.904620350E0
9.279236375E0,-1.415007477E0,-4.617447968E0,-2.361788635E0,5.375975953E0
9.289184375E0,-1.681154022E0,-4.561015320E0,-2.718496857E0,5.569503098E0
9.299131375E0,-1.558409271E0,-4.395459595E0,-2.820883942E0,5.450329414E0
9.309079375E0,-1.434467010E0,-4.185596008E0,-2.768193512E0,5.219176647E0
9.319026375E0,-1.466051331E0,-3.941902771E0,-2.692750397E0,4.993877117E0
9.328973375E0,-1.503024445E0,-3.818559265E0,-2.696043549E0,4.910104699E0
9.338921375E0,-1.429676971E0,-3.781735840E0,-2.569257202E0,4.790259364E0
9.348868375E0,-1.197809143E0,-3.712729340E0,-2.187700653E0,4.472710592E0
9.358816375E0,-9.440867615E-1,-3.513194275E0,-1.574875031E0,3.964097021E0
9.368763375E0,-6.870712280E-1,-3.166215820E0,-8.731343079E-1,3.355495941E0
9.378711125E0,-2.950364685E-1,-2.828967133E0,-3.210823059E-1,2.862375832E0
9.388658125E0,2.085163879E-1,-2.404898987E0,1.139131165E-1,2.416608040E0
9.398605125E0,8.159532166E-1,-1.229393463E0,3.448828125E-1,1.515299341E0
9.408553125E0,1.347497864E0,1.077758789E-2,5.545967102E-1,1.457204227E0
9.418500125E0,1.939666443E0,1.460512848E0,7.153623962E-1,2.531234293E0
9.428448125E0,2.542762299E0,2.820135498E0,7.539820862E-1,3.871342573E0
9.438395125E0,2.780018921E0,3.624263306E0,7.080276489E-1,4.622238945E0
9.448343125E0,2.578238525E0,4.436773682E0,6.448590088E-1,5.171858248E0
9.458290125E0,1.903441772E0,6.241869965E0,7.544311523E-2,6.526080209E0
9.468237125E0,8.551716614E-1,7.713010712E0,-5.556445312E-1,7.780140979E0
9.478185125E0,-5.707630920E-1,8.341853027E0,-5.337899780E-1,8.378377777E0
9.488132125E0,-2.296224976E0,9.608668671E0,1.790277100E-1,9.880850858E0
9.498080125E0,-2.956202545E0,1.233629654E1,2.157463531E0,1.286771132E1
9.508027125E0,-1.297801208E0,1.627625336E1,5.519472198E0,1.723558194E1
9.517974125E0,1.958976288E0,2.101075790E1,9.983489227E0,2.334436962E1
9.527922125E0,5.516777802E0,2.623010422E1,1.421414154E1,3.033966091E1
9.537869125E0,7.914491730E0,3.043740509E1,1.581910400E1,3.520396085E1
9.547817125E0,9.107061768E0,3.299603439E1,1.516930527E1,3.744041509E1
9.557764125E0,9.590107269E0,3.463407806E1,1.280766632E1,3.815135433E1
9.567712125E0,9.047934723E0,3.514287003E1,9.950557709E0,3.762844715E1
9.577659125E0,9.450896759E0,3.634307419E1,8.198750610E0,3.843641506E1
9.587606125E0,1.130434250E1,3.740706161E1,7.735014954E0,3.983599973E1
9.597554125E0,1.235156479E1,3.646776489E1,7.626340942E0,3.925073382E1
9.607501125E0,1.162976578E1,3.379537216E1,7.536228333E0,3.652633802E1
9.617449125E0,9.728719025E0,3.049952591E1,7.081324310E0,3.278740930E1
9.627396125E0,7.033573608E0,2.696702179E1,6.183790741E0,2.854699091E1
9.637343125E0,4.658762054E0,2.374512177E1,5.086273041E0,2.472660601E1
9.647291125E0,3.023263092E0,2.074865295E1,4.705315247E0,2.148922313E1
9.657238125E0,2.062111816E0,1.810544952E1,4.821174316E0,1.884949149E1
9.667186125E0,1.475332031E0,1.559052933E1,4.995262299E0,1.643757448E1
9.677133125E0,9.345066833E-1,1.316108139E1,5.097350006E0,1.414462241E1
9.687081125E0,4.911286926E-1,1.073028625E1,4.791386261E0,1.176170195E1
9.697028125E0,3.737727356E-1,8.513845367E0,4.211492157E0,9.505889500E0
9.706975125E0,8.155041504E-1,6.737788696E0,3.833677826E0,7.794865567E0
9.716923125E0,1.243464203E0,5.356311493E0,3.560346222E0,6.550751198E0
9.726870125E0,1.468895416E0,4.189487915E0,3.191513214E0,5.467652086E0
9.736818125E0,1.817969513E0,2.983296204E0,2.941832428E0,4.567214405E0
9.746765125E0,2.261497192E0,1.765728149E0,2.769091644E0,3.987484669E0
9.756713125E0,2.685715027E0,5.917195129E-1,2.517764282E0,3.728583400E0
9.766660125E0,2.751877441E0,-6.436614990E-1,2.102677460E0,3.522553346E0
9.776607125E0,2.467618561E0,-1.790277100E0,1.436263275E0,3.370027544E0
9.786555125E0,1.980980530E0,-2.826123047E0,5.776487732E-1,3.499276131E0
9.796502125E0,1.224753113E0,-3.809877319E0,-4.364923096E-1,4.025631741E0
9.806450125E0,2.510279846E-1,-4.675826569E0,-1.368005219E0,4.878299645E0
9.816397125E0,-7.728428650E-1,-5.359305267E0,-2.013462982E0,5.776977776E0
9.826344125E0,-1.467398529E0,-5.850134583E0,-2.570754089E0,6.556379311E0
9.836292125E0,-1.848655701E0,-6.198609924E0,-3.029699707E0,7.142784696E0
9.846239125E0,-2.032024384E0,-6.303691406E0,-3.312461700E0,7.405271835E0
9.856187125E0,-2.016905823E0,-6.262077942E0,-3.391197968E0,7.401469645E0
9.866134125E0,-1.898052979E0,-6.186335449E0,-3.229683838E0,7.232164897E0
9.876082125E0,-1.876198425E0,-5.904321899E0,-2.900069275E0,6.840434155E0
9.886029125E0,-1.850002899E0,-5.456303558E0,-2.598446503E0,6.320259763E0
9.895976125E0,-1.821262665E0,-4.947062531E0,-2.371219025E0,5.780406996E0
9.905924125E0,-1.677112427E0,-4.393813019E0,-2.086660767E0,5.145138685E0
9.915871125E0,-1.623374176E0,-3.807482300E0,-1.952240295E0,4.576407691E0
9.925819125E0,-1.572330322E0,-3.241209869E0,-1.808389435E0,4.030872909E0
9.935766125E0,-1.391057281E0,-2.793490906E0,-1.427431641E0,3.431645799E0
9.945714125E0,-1.098864899E0,-2.314636688E0,-9.304650879E-1,2.725951640E0
9.955661125E0,-6.042933655E-1,-1.743274841E0,-3.221301270E-1,1.872951004E0
9.965608125E0,-2.290237427E-2,-1.216969299E0,3.046165466E-1,1.254723091E0
9.975556125E0,3.245251465E-1,-7.488926697E-1,7.153623962E-1,1.085311089E0
9.985503125E0,3.297642517E-1,-1.637594604E-1,1.061293030E0,1.123345235E0
9.995451125E0,4.534071350E-1,2.255809021E-1,1.321152649E0,1.414888368E0
1.000539812E1,5.456153870E-1,9.023236084E-1,1.712289276E0,2.010924815E0
1.001534613E1,3.784130859E-1,2.106269989E0,1.780098267E0,2.783580351E0
1.002529313E1,2.028282166E-1,4.529431000E0,1.237476654E0,4.699812011E0
1.003524012E1,2.469863892E-2,6.949298859E0,2.908451843E-1,6.955426340E0
1.004518812E1,-1.466949463E-2,8.837472382E0,-3.101550293E-1,8.842925389E0
1.005513513E1,-1.063238983E0,1.117291580E1,7.982899475E-1,1.125174615E1
1.006508312E1,-1.979932709E0,1.465602264E1,3.538940735E0,1.520668389E1
1.007503012E1,-6.074368286E-1,1.939636505E1,7.727829895E0,2.088797050E1
1.008497713E1,2.551593933E0,2.525263687E1,1.358125763E1,2.878640060E1
1.009492513E1,5.867348785E0,3.070938950E1,1.835617813E1,3.625522942E1
1.010487212E1,8.616681519E0,3.435745331E1,1.894071259E1,4.016755396E1
1.011482013E1,9.569150848E0,3.597843246E1,1.674328217E1,4.082099641E1
1.012476713E1,9.145681458E0,3.782604034E1,1.396715515E1,4.134651425E1
1.013471512E1,1.122156464E1,3.982707916E1,1.207419159E1,4.310343200E1
1.014466213E1,1.311722260E1,4.107248932E1,1.107546844E1,4.451602980E1
1.015460913E1,1.331106949E1,4.015010742E1,1.033630554E1,4.354371263E1
1.016455712E1,1.154923325E1,3.640878754E1,9.678573303E0,3.940379905E1
1.017450413E1,9.128018188E0,3.222423935E1,8.117918701E0,3.446190537E1
1.018445213E1,6.266718292E0,2.795601517E1,6.567891998E0,2.939298807E1
1.019439912E1,3.434158630E0,2.439941116E1,5.615871735E0,2.527177726E1
1.020434613E1,1.732497253E0,2.135369476E1,5.321733398E0,2.207493314E1
1.021429413E1,1.267414398E0,1.874776382E1,5.534291382E0,1.958860303E1
1.022424112E1,1.278042297E0,1.624586655E1,5.764512634E0,1.728557716E1
1.023418913E1,1.514999542E0,1.388527542E1,5.688919830E0,1.508177397E1
1.024413613E1,1.626367950E0,1.157123749E1,5.369334412E0,1.285956305E1
1.025408412E1,1.904489594E0,9.377848663E0,4.930447083E0,1.076477750E1
1.026403112E1,2.090552673E0,7.393874359E0,4.292473755E0,8.801427126E0
1.027397813E1,2.161654816E0,5.641767883E0,3.598965912E0,7.032414381E0
1.028392612E1,2.309696960E0,4.155059509E0,2.879711609E0,5.558053483E0
1.029387312E1,2.498005371E0,3.042123871E0,2.258054352E0,4.537990517E0
1.030382113E1,2.382894745E0,2.075733490E0,1.710642700E0,3.593487907E0
1.031376812E1,2.260898438E0,1.080303497E0,1.198258209E0,2.777506098E0
1.032371612E1,2.096390533E0,1.225950623E-1,8.110134888E-1,2.251138756E0
1.033366313E1,1.623823242E0,-6.906637573E-1,3.737727356E-1,1.803752867E0
1.034361013E1,9.433383179E-1,-1.493743744E0,-2.119592285E-1,1.779349395E0
1.035355812E1,3.315605164E-1,-2.395618286E0,-9.494755554E-1,2.598157651E0
1.036350513E1,-3.646417236E-1,-3.414549408E0,-1.729952545E0,3.845106898E0
1.037345313E1,-1.206640778E0,-4.405638428E0,-2.346969452E0,5.135552310E0
1.038339992E1,-1.784139862E0,-5.041965179E0,-2.799478455E0,6.036691771E0
1.039334792E1,-2.129920807E0,-5.388793945E0,-3.033890991E0,6.540654201E0
1.040329492E1,-2.137554932E0,-5.372926941E0,-3.353476410E0,6.684556008E0
1.041324192E1,-1.837728424E0,-5.193749542E0,-3.439547424E0,6.494826137E0
1.042318992E1,-1.603315887E0,-5.010829926E0,-3.257525940E0,6.187932904E0
1.043313692E1,-1.571881256E0,-4.783003693E0,-2.908751221E0,5.814530821E0
1.044308492E1,-1.753303986E0,-4.573589172E0,-2.655028839E0,5.571442445E0
1.045303192E1,-2.104324036E0,-4.422852631E0,-2.670147400E0,5.578484756E0
1.046297992E1,-2.287543030E0,-4.270768890E0,-2.688110046E0,5.540600658E0
1.047292692E1,-2.110910339E0,-4.024530945E0,-2.441123657E0,5.158670032E0
1.048287392E1,-1.724863129E0,-3.665727081E0,-1.996398468E0,4.516449345E0
1.049282192E1,-1.507515106E0,-3.231779480E0,-1.612297211E0,3.913630373E0
1.050276892E1,-1.326092377E0,-2.776127014E0,-1.113534393E0,3.271904802E0
1.051271692E1,-8.825646973E-1,-2.470762024E0,-4.308041382E-1,2.658792513E0
1.052266392E1,-5.818400574E-1,-2.117197266E0,1.456471252E-1,2.200517030E0
1.053261192E1,-5.635780334E-1,-1.424737244E0,7.518864441E-1,1.706701391E0
1.054255892E1,-4.067042542E-1,-6.914122009E-1,1.016835480E0,1.295150020E0
1.055250592E1,-9.400451660E-2,3.372486877E-1,8.003855896E-1,8.736078174E-1
1.056245392E1,2.038760376E-1,1.390608215E0,2.525248718E-1,1.427979502E0
1.057240092E1,4.056564331E-1,2.409090271E0,-2.380050659E-2,2.443120861E0
1.058234892E1,1.032852173E-1,3.267405396E0,3.215313721E-1,3.284811757E0
1.059229592E1,-1.332978058E0,4.309687958E0,1.008752289E0,4.622534151E0
1.060224292E1,-3.271147614E0,5.916147308E0,1.630559235E0,6.954130363E0
1.061219092E1,-4.216731262E0,7.912845154E0,3.212170258E0,9.524283633E0
1.062213792E1,-4.353097687E0,1.081291443E1,6.352190552E0,1.327474680E1
1.063208592E1,-3.212469635E0,1.509850250E1,1.059212357E1,1.872105287E1
1.064203292E1,-5.830375671E-1,2.004197250E1,1.543410461E1,2.530280972E1
1.065198092E1,3.177442474E0,2.487167908E1,2.005215134E1,3.210584579E1
1.066192792E1,5.992787933E0,2.874667099E1,2.281615356E1,3.718684530E1
1.067187492E1,6.710096283E0,3.146681442E1,2.241453873E1,3.921220917E1
1.068182292E1,5.834267578E0,3.356260620E1,1.956805801E1,3.928608033E1
1.069176992E1,5.377417603E0,3.578623215E1,1.643432465E1,3.974491235E1
1.070171792E1,6.292913818E0,3.782963287E1,1.637504791E1,4.169920961E1
1.071166492E1,7.156468048E0,3.707056137E1,1.812655563E1,4.188094524E1
1.072161292E1,6.055657196E0,3.378219955E1,1.880614243E1,3.913539298E1
1.073155992E1,4.412075043E0,3.022814026E1,1.794558197E1,3.542951851E1
1.074150692E1,2.987038422E0,2.685250992E1,1.650782181E1,3.166208882E1
1.075145492E1,8.782237244E-1,2.391786255E1,1.441352692E1,2.793895460E1
1.076140192E1,-9.297166443E-1,2.148332520E1,1.249676285E1,2.487100151E1
1.077134992E1,-1.874851227E0,1.946686844E1,1.129790588E1,2.258576346E1
1.078129692E1,-2.093845825E0,1.779215103E1,1.022718246E1,2.062862307E1
1.079124492E1,-2.049537964E0,1.612042740E1,9.250613251E0,1.869873340E1
1.080119192E1,-1.816921692E0,1.433059937E1,8.378975830E0,1.669953648E1
1.081113892E1,-1.178499298E0,1.248778152E1,7.559879150E0,1.464531737E1
1.082108692E1,-3.987707520E-1,1.080707657E1,6.829248505E0,1.279025243E1
1.083103392E1,7.170089722E-2,9.093889160E0,5.913153534E0,1.084755022E1
1.084098192E1,4.649331665E-1,7.367080078E0,4.860093384E0,8.838016713E0
1.085092892E1,8.931925964E-1,5.684878235E0,3.854035492E0,6.925981745E0
1.086087692E1,1.402433624E0,4.152963867E0,3.109783173E0,5.374446979E0
1.087082392E1,1.813329163E0,2.792143707E0,2.632725220E0,4.244463596E0
1.088077092E1,2.060614929E0,1.576371918E0,2.385439453E0,3.524401182E0
1.089071892E1,2.183209991E0,3.808081055E-1,2.195334778E0,3.119441531E0
1.090066592E1,2.067201233E0,-5.995033264E-1,1.930984497E0,2.891613097E0
1.091061392E1,1.738634491E0,-1.400487671E0,1.476679230E0,2.676713873E0
1.092056092E1,1.257984009E0,-2.159110107E0,7.840695190E-1,2.618977899E0
1.093050792E1,7.387138367E-1,-2.829565887E0,-8.352630615E-2,2.925597014E0
1.094045592E1,1.243913269E-1,-3.290906525E0,-9.240284729E-1,3.420433828E0
1.095040292E1,-5.634283447E-1,-3.689976654E0,-1.544039154E0,4.039484635E0
1.096035092E1,-1.175804901E0,-4.070485382E0,-2.219883728E0,4.783226126E0
1.097029792E1,-1.651665344E0,-4.252357178E0,-2.647694092E0,5.274544907E0
1.098024592E1,-1.806443481E0,-4.239034882E0,-2.851420441E0,5.418787070E0
1.099019292E1,-1.723066864E0,-4.189038849E0,-2.849025421E0,5.351070150E0
1.100013992E1,-1.651216278E0,-4.051175537E0,-2.441872101E0,5.010117542E0
1.101008792E1,-1.218915253E0,-3.760629730E0,-2.030527496E0,4.444224598E0
1.102003492E1,-7.738906860E-1,-3.481011200E0,-2.037862244E0,4.107216611E0
1.102998292E1,-8.116122437E-1,-3.412154388E0,-2.382295990E0,4.239911106E0
1.103992992E1,-1.014889526E0,-3.371588745E0,-2.739004211E0,4.460914199E0
1.104987792E1,-9.613009644E-1,-3.252735901E0,-3.040327606E0,4.554995317E0
1.105982492E1,-7.837701416E-1,-3.096311188E0,-3.023412781E0,4.398006759E0
1.106977192E1,-6.896159363E-1,-2.624043274E0,-2.607427826E0,3.762958027E0
1.107971992E1,-4.924758911E-1,-2.231559448E0,-1.838476868E0,2.932982657E0
1.108966692E1,-2.468367004E-1,-1.842368774E0,-8.437953186E-1,2.041382276E0
1.109961492E1,3.577560425E-2,-1.230291595E0,-1.308279419E-1,1.237745230E0
1.110956192E1,3.574566650E-1,-6.587800598E-1,3.751199341E-1,8.381416345E-1
1.111950992E1,6.230044556E-1,-1.158590698E-1,6.932084656E-1,9.391995807E-1
1.112945692E1,7.454498291E-1,5.854325867E-1,8.562194824E-1,1.277316939E0
1.113940392E1,1.023870850E0,1.472038879E0,1.023272095E0,2.064532819E0
1.114935192E1,1.219214630E0,2.270628204E0,1.480421448E0,2.972185125E0
1.115929892E1,9.915380859E-1,3.112776947E0,2.137105865E0,3.903812185E0
1.116924692E1,-1.609153748E-1,4.302951965E0,2.479144592E0,4.968646424E0
1.117919392E1,-1.774110718E0,5.750591583E0,2.317929840E0,6.448997685E0
1.118914192E1,-3.174299011E0,7.181615753E0,1.895957336E0,8.077526432E0
1.119908892E1,-3.924089813E0,9.366172943E0,1.641336823E0,1.028677126E1
1.120903592E1,-3.320095825E0,1.286275177E1,3.077300720E0,1.363609912E1
1.121898392E1,-9.324110413E-1,1.743873596E1,6.865173798E0,1.876458136E1
1.122893092E1,2.058519287E0,2.202938965E1,1.178753769E1,2.506945462E1
1.123887892E1,3.694467316E0,2.558270050E1,1.521630753E1,2.999432727E1
1.124882592E1,4.462220764E0,2.819731339E1,1.687006851E1,3.316020368E1
1.125877392E1,4.782704315E0,3.094185608E1,1.707125015E1,3.566090717E1
1.126872092E1,4.976700897E0,3.415911575E1,1.592613144E1,3.801650173E1
1.127866792E1,5.620512085E0,3.733326508E1,1.514864822E1,4.067977852E1
1.128861592E1,7.007976837E0,3.973427216E1,1.487875946E1,4.300350691E1
1.129856292E1,8.156538391E0,4.058480347E1,1.403840698E1,4.371192356E1
1.130851092E1,8.494834900E0,3.924913101E1,1.237057526E1,4.202008612E1
1.131845792E1,8.534502411E0,3.693449432E1,9.737101593E0,3.913829007E1
1.132840592E1,8.545729065E0,3.369328445E1,6.680008850E0,3.539617805E1
1.133835292E1,7.357500000E0,2.989044250E1,3.617826691E0,3.099451612E1
1.134829992E1,5.595065002E0,2.588537109E1,1.591041412E0,2.653089900E1
1.135824792E1,3.969595184E0,2.193718140E1,7.860154724E-1,2.230729553E1
1.136819492E1,2.700234833E0,1.816846848E1,9.424401855E-1,1.839219151E1
1.137814287E1,1.531315613E0,1.470107895E1,1.291963348E0,1.483697473E1
1.138808987E1,5.553451538E-1,1.159264297E1,1.637893982E0,1.172094177E1
1.139803788E1,-2.589614868E-1,8.800050201E0,2.249971161E0,9.086820942E0
1.140798487E1,-5.873785400E-1,6.359225922E0,2.817590790E0,6.980228200E0
1.141793187E1,-5.770500183E-1,4.345613251E0,3.213667145E0,5.435531047E0
1.142787988E1,-3.046165466E-1,2.811902618E0,3.250340881E0,4.308631270E0
1.143782688E1,-2.679428101E-2,1.586999817E0,2.931653595E0,3.333748514E0
1.144777487E1,5.176235962E-1,5.815406799E-1,2.647843781E0,2.759927614E0
1.145772188E1,1.196312256E0,-2.170486450E-1,2.466121674E0,2.749550734E0
1.146766988E1,1.724863129E0,-9.586065674E-1,2.337988129E0,3.059455483E0
1.147761687E1,2.006577301E0,-1.816772003E0,2.305954742E0,3.555902171E0
1.148756388E1,2.055226135E0,-2.690505066E0,2.271825714E0,4.077249570E0
1.149751188E1,1.653311920E0,-3.516038361E0,2.077829132E0,4.406057190E0
1.150745887E1,6.170169067E-1,-4.177363129E0,1.568588104E0,4.504613326E0
1.151740688E1,-4.082011414E-1,-4.672982483E0,6.463558960E-1,4.735099725E0
1.152735388E1,-1.519340515E0,-4.994064789E0,-7.068301392E-1,5.267702304E0
1.153730187E1,-2.555186462E0,-5.179978180E0,-2.094594269E0,6.143978919E0
1.154724888E1,-2.926264801E0,-5.293292542E0,-3.641627197E0,7.059987270E0
1.155719588E1,-3.084485779E0,-5.555247803E0,-4.632566528E0,7.863555386E0
1.156714387E1,-2.996768188E0,-5.781726837E0,-4.694088593E0,8.027667937E0
1.157709088E1,-2.412084045E0,-5.717959442E0,-3.818708954E0,7.286682901E0
1.158703888E1,-1.829345856E0,-5.172942810E0,-2.501897278E0,6.030367614E0
1.159698587E1,-1.338366852E0,-4.496798859E0,-1.563648376E0,4.945444576E0
1.160693388E1,-9.759704590E-1,-3.750899963E0,-1.221909027E0,4.063844306E0
1.161688088E1,-6.944059753E-1,-2.967279510E0,-1.503772888E0,3.398276070E0
1.162682787E1,-5.851332092E-1,-2.294578400E0,-2.226619720E0,3.250431707E0
1.163677587E1,-7.963439941E-1,-1.721719666E0,-3.024310913E0,3.570005443E0
1.164672288E1,-1.147962799E0,-1.368154907E0,-3.491938477E0,3.922155117E0
1.165667087E1,-1.198707275E0,-1.063388672E0,-3.245700531E0,3.619705311E0
1.166661787E1,-8.054750061E-1,-9.021739197E-1,-2.303709412E0,2.601881016E0
1.167656588E1,-3.787124634E-1,-8.497828674E-1,-1.105900269E0,1.445188381E0
1.168651287E1,-7.185058594E-2,-6.668632507E-1,-1.227447510E-2,6.708351248E-1
1.169645987E1,9.924362183E-2,-3.941304016E-1,9.647438049E-1,1.046861347E0
1.170640788E1,1.932481384E-1,4.490661621E-4,1.562001801E0,1.573910629E0
1.171635488E1,6.885681152E-3,3.821553040E-1,1.783391418E0,1.823890085E0
1.172630287E1,-5.978567505E-1,1.084494781E0,1.746118927E0,2.140675812E0
1.173624988E1,-1.526675262E0,2.758763123E0,1.122366028E0,3.346821899E0
1.174619788E1,-2.491718445E0,5.391638031E0,3.384461975E-1,5.949198878E0
1.175614487E1,-2.956202545E0,9.099577332E0,-2.429447937E-1,9.570813094E0
1.176609188E1,-2.213147736E0,1.487307129E1,8.756790161E-2,1.503708551E1
1.177603988E1,5.786965942E-1,2.135683823E1,2.852767639E0,2.155429683E1
1.178598687E1,6.392307129E0,2.644460815E1,1.049617310E1,2.916073628E1
1.179593488E1,1.071935898E1,3.081477036E1,2.042936691E1,3.849433415E1
1.180588188E1,1.066307602E1,3.302672058E1,2.556818069E1,4.310681299E1
1.181582987E1,8.068222046E0,3.123838943E1,2.470507553E1,4.063587010E1
1.182577688E1,4.939278717E0,2.866344406E1,2.195125214E1,3.643963460E1
1.183572388E1,2.345921631E0,2.755050842E1,1.985351440E1,3.403962245E1
1.184567187E1,2.263892212E0,2.869712402E1,1.849913086E1,3.421794818E1
1.185561888E1,3.260220337E0,2.994358200E1,1.706062225E1,3.461664298E1
1.186556688E1,3.001707916E0,3.004611877E1,1.540955566E1,3.390035265E1
1.187551387E1,2.706821136E0,2.941308517E1,1.413226181E1,3.274411831E1
1.188546188E1,3.723207550E0,2.821482697E1,1.294912216E1,3.126689143E1
1.189540888E1,4.796026611E0,2.661869614E1,1.134700378E1,2.933106459E1
1.190535587E1,5.161117401E0,2.446497482E1,8.939709778E0,2.655354095E1
1.191530387E1,4.257895660E0,2.177581696E1,6.304140472E0,2.306638391E1
1.192525088E1,3.002755737E0,1.893532379E1,4.040397949E0,1.959305603E1
1.193519887E1,1.906884613E0,1.628718063E1,2.480491791E0,1.658497216E1
1.194514587E1,9.937834167E-1,1.392209885E1,1.578467560E0,1.404649428E1
1.195509388E1,3.224295044E-1,1.195638657E1,1.309027863E0,1.203215253E1
1.196504088E1,-2.338137817E-1,9.991722107E0,1.349892883E0,1.008520651E1
1.197498887E1,-9.147477722E-1,7.922425232E0,1.537303162E0,8.121877003E0
1.198493588E1,-1.385818176E0,6.161487122E0,1.850451965E0,6.580926078E0
1.199488288E1,-1.523681488E0,4.712500305E0,2.192939758E0,5.416479409E0
1.200483087E1,-1.390757904E0,3.497177582E0,2.404000854E0,4.465834602E0
1.201477788E1,-9.922865295E-1,2.482886810E0,2.491568756E0,3.654760503E0
1.202472588E1,-3.257226562E-1,1.746717682E0,2.371368713E0,2.963192111E0
1.203467287E1,6.159690857E-1,1.173110504E0,2.208208008E0,2.575225966E0
1.204462088E1,1.623074799E0,7.086264038E-1,1.879341888E0,2.582334044E0
1.205456788E1,2.221979370E0,3.206332397E-1,1.383872223E0,2.637252420E0
1.206451487E1,2.324366455E0,-4.939727783E-2,7.881111145E-1,2.454839839E0
1.207446288E1,1.833088074E0,-4.706213379E-1,4.640350342E-3,1.892542698E0
1.208440988E1,1.172811127E0,-9.876461792E-1,-7.628137207E-1,1.712546550E0
1.209435787E1,5.947132874E-1,-1.651665344E0,-1.431173859E0,2.264937288E0
1.210430488E1,1.179547119E-1,-2.357447662E0,-1.877545624E0,3.016065378E0
1.211425288E1,-3.472778320E-1,-3.083288269E0,-2.164349213E0,3.783077577E0
1.212419987E1,-8.119116211E-1,-3.867956543E0,-2.280956726E0,4.563228231E0
1.213414688E1,-1.334025879E0,-4.530179443E0,-2.143692169E0,5.186286432E0
1.214409488E1,-1.805994415E0,-5.020410004E0,-1.832339630E0,5.641241083E0
1.215404187E1,-2.180964661E0,-5.349126434E0,-1.497036896E0,5.967485227E0
1.216398987E1,-2.193837891E0,-5.582640839E0,-1.238524475E0,6.124764999E0
1.217393688E1,-2.012864227E0,-5.678591309E0,-1.104253693E0,6.125144722E0
1.218388487E1,-2.143991547E0,-5.674699402E0,-1.155896301E0,6.175354995E0
1.219383187E1,-2.137105865E0,-5.658233643E0,-1.422042847E0,6.213295043E0
1.220377888E1,-1.858385468E0,-5.199437714E0,-1.802551575E0,5.808350993E0
1.221372687E1,-1.606159973E0,-4.148024139E0,-2.275567932E0,4.996405061E0
1.222367387E1,-1.278191986E0,-2.900368652E0,-2.695444794E0,4.160689331E0
1.223362188E1,-5.149291992E-1,-1.772164764E0,-2.870580597E0,3.412616737E0
1.224356888E1,1.239422607E-1,-8.451425171E-1,-2.645448761E0,2.779932860E0
1.225351687E1,5.992039490E-1,2.110610962E-1,-1.935026093E0,2.036643842E0
1.226346388E1,8.101153564E-1,1.318458252E0,-1.231040039E0,1.977391876E0
1.227341188E1,5.827381897E-1,2.314636688E0,-5.679190063E-1,2.453499296E0
1.228335887E1,8.696914673E-2,3.339555359E0,-3.793112183E-1,3.362152678E0
1.229330588E1,-4.694238281E-1,4.641847229E0,-1.842668152E-1,4.669160384E0
1.230325388E1,-1.142574005E0,6.294710083E0,7.884104919E-1,6.445963193E0
1.231320087E1,-1.285227356E0,8.388855286E0,2.491718445E0,8.844962587E0
1.232314888E1,-6.497987366E-1,1.104538101E1,4.690346375E0,1.201757169E1
1.233309588E1,1.057850189E0,1.426593384E1,7.537126465E0,1.616923593E1
1.234304387E1,3.059787140E0,1.789094559E1,1.027208908E1,2.085579165E1
1.235299088E1,4.802463226E0,2.163121765E1,1.190130112E1,2.515182296E1
1.236293788E1,6.118526459E0,2.514411255E1,1.258403137E1,2.877534722E1
1.237288587E1,6.887776794E0,2.754990967E1,1.264989441E1,3.108792081E1
1.238283279E1,7.414082336E0,2.941682739E1,1.251128265E1,3.281540102E1
1.239278079E1,8.498277740E0,3.105636795E1,1.246368164E1,3.452625197E1
1.240272779E1,9.942624207E0,3.278048264E1,1.262594421E1,3.650794825E1
1.241267579E1,1.186432800E1,3.448319183E1,1.278147079E1,3.864218930E1
1.242262279E1,1.363245117E1,3.571842316E1,1.213062424E1,4.010986814E1
1.243256979E1,1.438044571E1,3.601301056E1,1.043031006E1,4.015626372E1
1.244251779E1,1.367690872E1,3.443768646E1,8.210426331E0,3.795290742E1
1.245246479E1,1.113684082E1,3.139316757E1,6.101761322E0,3.386431285E1
1.246241279E1,7.931107178E0,2.784569458E1,4.492906952E0,2.929968226E1
1.247235979E1,5.170098724E0,2.411545166E1,4.133055267E0,2.500734043E1
1.248230779E1,2.810405731E0,2.086226669E1,4.798870697E0,2.159077840E1
1.249225479E1,1.209933929E0,1.807221863E1,5.605393524E0,1.896020735E1
1.250220179E1,-5.448669434E-2,1.560025909E1,6.232589264E0,1.679929229E1
1.251214979E1,-7.824229431E-1,1.349518661E1,6.495742035E0,1.499756354E1
1.252209679E1,-9.476792908E-1,1.164653091E1,6.423143005E0,1.333403706E1
1.253204479E1,-8.155041504E-1,1.001881577E1,5.931265869E0,1.167140228E1
1.254199179E1,-6.098318481E-1,8.466843109E0,5.070406036E0,9.887787644E0
1.255193979E1,-3.800596619E-1,6.987170105E0,4.211791534E0,8.167262660E0
1.256188679E1,-1.317260742E-2,5.628894653E0,3.532953186E0,6.645779619E0
1.257183479E1,3.716770935E-1,4.430187378E0,3.090173950E0,5.414229318E0
1.258178179E1,6.816824341E-1,3.340453491E0,2.919828186E0,4.488732238E0
1.259172879E1,9.747729492E-1,2.317780151E0,2.866688690E0,3.813160261E0
1.260167679E1,1.371448059E0,1.371597748E0,2.834056549E0,3.434243248E0
1.261162379E1,1.825753326E0,5.149291992E-1,2.930306396E0,3.490733858E0
1.262157179E1,2.115850067E0,-1.932481384E-1,2.903811493E0,3.598094987E0
1.263151879E1,1.923799438E0,-8.930429077E-1,2.263443146E0,3.101887295E0
1.264146679E1,1.320553894E0,-1.542392578E0,1.204694824E0,2.360958931E0
1.265141379E1,5.932164001E-1,-2.105371857E0,-7.948471069E-2,2.188792857E0
1.266136079E1,-1.920506287E-1,-2.686463470E0,-1.300196228E0,2.990732294E0
1.267130879E1,-9.229806519E-1,-3.106040955E0,-2.299218750E0,3.973133594E0
1.268125579E1,-1.369053040E0,-3.367996216E0,-3.036286011E0,4.736743341E0
1.269120379E1,-1.554517365E0,-3.498973846E0,-3.410956879E0,5.127764527E0
1.270115079E1,-1.595981140E0,-3.501668243E0,-3.265758820E0,5.047179109E0
1.271109879E1,-1.570683746E0,-3.429368591E0,-2.624342651E0,4.595083320E0
1.272104579E1,-1.588496704E0,-3.415447540E0,-1.961970062E0,4.247108452E0
1.273099279E1,-1.601669312E0,-3.532204742E0,-1.581760712E0,4.188529799E0
1.274094079E1,-1.882335663E0,-3.745511169E0,-1.438059540E0,4.431710359E0
1.275088779E1,-2.215692444E0,-3.912114716E0,-1.692081299E0,4.803860289E0
1.276083579E1,-2.199376373E0,-3.956871643E0,-2.176024933E0,5.022865133E0
1.277078279E1,-2.016307068E0,-3.663481750E0,-2.486928406E0,4.865326877E0
1.278073079E1,-1.708547058E0,-3.047512665E0,-2.614014130E0,4.363431718E0
1.279067779E1,-1.263522491E0,-2.238445129E0,-2.705324249E0,3.731742887E0
1.280062579E1,-6.985972595E-1,-1.422641602E0,-2.632425842E0,3.072720793E0
1.281057279E1,5.538482666E-2,-7.206015015E-1,-2.542762299E0,2.643477655E0
1.282051979E1,6.825805664E-1,-1.417552185E-1,-2.124532013E0,2.235989053E0
1.283046779E1,9.503736877E-1,4.863386536E-1,-1.344204712E0,1.716572672E0
1.284041479E1,1.216370544E0,1.278641052E0,-6.248007202E-1,1.872126113E0
1.285036279E1,1.221609650E0,2.019300842E0,-6.840774536E-2,2.361056045E0
1.286030979E1,4.951702881E-1,2.785407715E0,3.508703613E-1,2.850754245E0
1.287025779E1,-5.557942200E-1,3.748205566E0,1.853146362E-1,3.793717662E0
1.288020479E1,-1.521735535E0,4.820575562E0,-6.376739502E-2,5.055461805E0
1.289015179E1,-1.953587494E0,6.253845062E0,3.228785706E-1,6.559827188E0
1.290009979E1,-8.761280823E-1,8.418793030E0,1.744622040E0,8.642186214E0
1.291004679E1,1.256636810E0,1.134880005E1,4.584516449E0,1.230415335E1
1.291999479E1,3.867357788E0,1.450453766E1,8.647218018E0,1.732375388E1
1.292994179E1,5.503305817E0,1.752166351E1,1.214559311E1,2.201841273E1
1.293988979E1,6.375242615E0,2.053878937E1,1.351704117E1,2.540070844E1
1.294983679E1,7.069199524E0,2.356010651E1,1.267728745E1,2.767247400E1
1.295978479E1,6.655759277E0,2.391756317E1,1.089913513E1,2.711346725E1
1.296973179E1,6.110742645E0,2.687750793E1,9.924062805E0,2.929553944E1
1.297967879E1,8.254135437E0,3.060086517E1,1.050320847E1,3.338953562E1
1.298962679E1,1.162692169E1,3.495695663E1,1.279703842E1,3.899920919E1
1.299957379E1,1.476185257E1,3.903507614E1,1.493339584E1,4.432443764E1
1.300952179E1,1.723605743E1,4.147769669E1,1.564681229E1,4.756368082E1
1.301946879E1,1.816457657E1,4.161526062E1,1.457114914E1,4.768752610E1
1.302941679E1,1.676438828E1,3.912069809E1,1.137200180E1,4.405446808E1
1.303936379E1,1.390308838E1,3.482672745E1,6.968608704E0,3.814129414E1
1.304931079E1,1.032807266E1,2.978910324E1,2.799029388E0,3.165271430E1
1.305925879E1,7.114106140E0,2.519425827E1,-5.164260864E-2,2.617945421E1
1.306920579E1,4.812642059E0,2.125609772E1,-1.254990234E0,2.183021333E1
1.307915379E1,3.264411621E0,1.793405594E1,-1.044078827E0,1.825861019E1
1.308910079E1,2.138153687E0,1.500135452E1,-2.330653381E-1,1.515475695E1
1.309904879E1,1.317410431E0,1.228121109E1,5.834866333E-1,1.236544268E1
1.310899579E1,6.517446899E-1,9.786648560E0,1.061293030E0,9.865576722E0
1.311894279E1,7.888595581E-2,7.603139191E0,1.296753387E0,7.713333773E0
1.312889079E1,-2.767744446E-1,5.692063293E0,1.539548492E0,5.903083787E0
1.313883779E1,-3.954776001E-1,4.023333435E0,1.893113251E0,4.464021980E0
1.314878579E1,-7.708969116E-2,2.663561096E0,2.221679993E0,3.469346123E0
1.315873279E1,4.718188477E-1,1.614542542E0,2.382595367E0,2.916525558E0
1.316868079E1,1.058149567E0,7.798782349E-1,2.306703186E0,2.654952006E0
1.317862779E1,1.409319305E0,1.191522217E-1,2.054627380E0,2.494368022E0
1.318857579E1,1.645228729E0,-4.183799744E-1,1.720073090E0,2.416706604E0
1.319852279E1,1.673669586E0,-9.213340759E-1,1.107696533E0,2.208397150E0
1.320846979E1,1.472188568E0,-1.461111603E0,4.149371338E-1,2.115268097E0
1.321841779E1,1.241518250E0,-1.966610413E0,-1.445993042E-1,2.330200214E0
1.322836479E1,8.562194824E-1,-2.525697784E0,-5.920188904E-1,2.731802970E0
1.323831279E1,3.254232788E-1,-3.064726868E0,-9.258247375E-1,3.218012201E0
1.324825979E1,-1.761836243E-1,-3.494183807E0,-1.158890076E0,3.685564727E0
1.325820779E1,-5.754034424E-1,-3.792663116E0,-1.174008636E0,4.011692774E0
1.326815479E1,-8.222401428E-1,-3.998784485E0,-1.002315674E0,4.203688014E0
1.327810179E1,-9.925859070E-1,-4.127666473E0,-7.761360168E-1,4.315697442E0
1.328804979E1,-1.092128906E0,-4.226011963E0,-5.372328186E-1,4.397788280E0
1.329799679E1,-1.175954590E0,-4.277355194E0,-4.040098572E-1,4.454420346E0
1.330794479E1,-1.336271210E0,-4.254752197E0,-5.483097839E-1,4.493237210E0
1.331789179E1,-1.379980316E0,-4.087250519E0,-8.288264465E-1,4.392825487E0
1.332783979E1,-1.231938171E0,-3.884571991E0,-1.212628326E0,4.251827686E0
1.333778679E1,-1.197210388E0,-3.760180664E0,-1.621428223E0,4.266298257E0
1.334773479E1,-1.419647827E0,-3.567082214E0,-2.106719055E0,4.379239735E0
1.335768179E1,-1.503473511E0,-3.208577728E0,-2.344724121E0,4.248898074E0
1.336762879E1,-1.156045990E0,-2.892135773E0,-1.994901581E0,3.698719235E0
1.337757679E1,-6.614744568E-1,-2.539768524E0,-9.289682007E-1,2.784053615E0
1.338752437E1,5.493576050E-2,-2.081122284E0,7.499404907E-2,2.083197544E0
1.339747238E1,8.146060181E-1,-1.659000092E0,1.132844238E0,2.167763902E0
1.340741937E1,1.169368286E0,-1.131047974E0,1.998494110E0,2.576949828E0
1.341736737E1,8.596623230E-1,-3.646417236E-1,2.640958099E0,2.801185924E0
1.342731438E1,-3.367996216E-1,5.312452698E-1,2.765050049E0,2.835693442E0
1.343726237E1,-1.698218536E0,1.613943787E0,2.203717346E0,3.216384754E0
1.344720937E1,-3.081192627E0,3.168610840E0,1.538350983E0,4.679782730E0
1.345715638E1,-3.319796448E0,5.602399750E0,1.405876465E0,6.662163316E0
1.346710438E1,-1.765877838E0,9.493857422E0,2.659369812E0,1.001618196E1
1.347705137E1,1.237925720E0,1.469808517E1,5.321583710E0,1.568073407E1
1.348699938E1,4.510719910E0,1.980696121E1,8.329578552E0,2.195550467E1
1.349694638E1,6.816974030E0,2.354169479E1,1.033690430E1,2.659951351E1
1.350689437E1,7.293433228E0,2.596066452E1,9.723779297E0,2.866534762E1
1.351684138E1,6.251150665E0,2.712569183E1,7.385940857E0,2.879986397E1
1.352678838E1,5.043611755E0,2.820973755E1,5.566175079E0,2.919262950E1
1.353673637E1,5.261857910E0,3.082150635E1,5.561684418E0,3.175822312E1
1.354668338E1,7.131919098E0,3.428829712E1,7.550299072E0,3.582678614E1
1.355663138E1,9.601034546E0,3.764207291E1,1.004321503E1,4.012445246E1
1.356657837E1,1.161958694E1,4.047313568E1,1.100047440E1,4.352125859E1
1.357652638E1,1.216430420E1,3.875351166E1,1.014829651E1,4.186636937E1
1.358647338E1,1.183154617E1,3.734763519E1,8.023764496E0,3.999015049E1
1.359642137E1,1.089135132E1,3.477792892E1,5.186714172E0,3.681070330E1
1.360636838E1,8.754395142E0,3.136248138E1,3.030298462E0,3.270210057E1
1.361631538E1,6.400240631E0,2.736205032E1,1.607956238E0,2.814658774E1
1.362626337E1,4.589456177E0,2.319995544E1,9.729766846E-1,2.366955268E1
1.363621037E1,3.219205627E0,1.922976151E1,1.066532135E0,1.952650771E1
1.364615838E1,2.122286682E0,1.546688644E1,1.509161682E0,1.568458626E1
1.365610537E1,1.308429108E0,1.203781723E1,1.869612122E0,1.225220306E1
1.366605337E1,6.637197876E-1,9.111851807E0,1.735790405E0,9.299426629E0
1.367600038E1,1.546284485E-1,6.485563202E0,1.412911835E0,6.639484909E0
1.368594737E1,-2.664459229E-1,4.403842163E0,1.030307465E0,4.530601803E0
1.369589537E1,-5.026547241E-1,2.732567596E0,9.463320923E-1,2.935154488E0
1.370584238E1,-3.766168213E-1,1.485510864E0,1.096619568E0,1.884451441E0
1.371579038E1,-4.445755005E-2,5.239105225E-1,1.542392578E0,1.629550114E0
1.372573737E1,3.659889221E-1,-2.308200073E-1,2.367327118E0,2.406545958E0
1.373568538E1,1.055455170E0,-8.756790161E-1,3.107837219E0,3.396976823E0
1.374563238E1,1.664388885E0,-1.458716583E0,3.477268982E0,4.121825324E0
1.375558037E1,1.922152863E0,-1.919009399E0,3.465892639E0,4.403371491E0
1.376552738E1,1.737586670E0,-2.325414276E0,3.004851379E0,4.178024749E0
1.377547438E1,1.165027313E0,-2.805466003E0,2.251018982E0,3.780874845E0
1.378542237E1,4.465214539E-1,-3.255130920E0,1.257984009E0,3.518207283E0
1.379536938E1,-7.911048889E-1,-3.672014008E0,2.079176331E-1,3.762015890E0
1.380531738E1,-2.077380066E0,-4.082759857E0,-7.024891663E-1,4.634428446E0
1.381526437E1,-2.965632935E0,-4.387526093E0,-1.486259308E0,5.500393681E0
1.382521238E1,-3.576063538E0,-4.508474579E0,-1.823657684E0,6.036580224E0
1.383515938E1,-3.801943817E0,-4.437821503E0,-1.739233246E0,6.097045905E0
1.384510737E1,-3.403322754E0,-4.203109589E0,-1.474433899E0,5.605594643E0
1.385505438E1,-2.726130981E0,-3.910917206E0,-1.110989685E0,4.895034382E0
1.386500138E1,-2.142195282E0,-3.584446106E0,-8.397537231E-1,4.259394420E0
1.387494937E1,-1.674567719E0,-3.195554810E0,-8.238867188E-1,3.700613045E0
1.388489638E1,-1.451531525E0,-2.754871216E0,-8.723858643E-1,3.233777401E0
1.389484438E1,-1.329535217E0,-2.248623962E0,-9.574090576E-1,2.782194408E0
1.390479137E1,-1.013692017E0,-1.778601379E0,-1.176253967E0,2.361052258E0
1.391473938E1,-3.384461975E-1,-1.379680939E0,-1.151705017E0,1.828794622E0
1.392468638E1,5.339396667E-1,-8.888516235E-1,-1.047970734E0,1.474242665E0
1.393463337E1,1.537153473E0,-2.404000854E-1,-1.035396881E0,1.868871237E0
1.394458137E1,2.262994080E0,4.685256958E-1,-8.669970703E-1,2.468267095E0
1.395452838E1,2.754422150E0,1.243763580E0,-6.721023560E-1,3.096047609E0
1.396447637E1,3.078947296E0,1.961221619E0,-3.453318787E-1,3.666818893E0
1.397442337E1,2.875071259E0,2.428549805E0,1.279838562E-1,3.765669763E0
1.398437138E1,2.062261505E0,3.001408539E0,7.065307617E-1,3.709523076E0
1.399431838E1,8.351133728E-1,4.096830597E0,1.199156342E0,4.349644953E0
1.400426637E1,-2.628533936E-1,5.638923798E0,1.483864288E0,5.836814776E0
1.401421338E1,-1.266665955E0,7.861501923E0,2.224973145E0,8.267899408E0
1.402416038E1,-6.930587769E-1,1.063253952E1,3.553909607E0,1.123216367E1
1.403410837E1,1.167721710E0,1.376687164E1,6.140830078E0,1.511952787E1
1.404405538E1,3.805386658E0,1.712783249E1,9.653874664E0,2.002600583E1
1.405400338E1,6.022426300E0,2.022025177E1,1.257265503E1,2.456012733E1
1.406395037E1,7.026089172E0,2.264775375E1,1.354787704E1,2.730991856E1
1.407389838E1,7.061116333E0,2.439462112E1,1.213840805E1,2.814778595E1
1.408384538E1,7.046746216E0,2.640374313E1,9.480834503E0,2.892577582E1
1.409379337E1,8.286917267E0,3.084276215E1,7.146438904E0,3.272645052E1
1.410374038E1,1.044243484E1,3.470697647E1,6.276148682E0,3.678326662E1
1.411368738E1,1.058014847E1,3.538162354E1,7.485483856E0,3.768064880E1
1.412363537E1,1.183049835E1,3.827001709E1,8.318651276E0,4.091154921E1
1.413358238E1,1.469239700E1,3.985611877E1,8.266260223E0,4.327479395E1
1.414353038E1,1.576880859E1,4.047777603E1,7.567363586E0,4.409501864E1
1.415347737E1,1.507021133E1,3.792588272E1,6.274801483E0,4.128991382E1
1.416342538E1,1.210248276E1,3.307536942E1,5.471871185E0,3.564255217E1
1.417337238E1,9.108558655E0,2.825823669E1,4.797972565E0,3.007514460E1
1.418331937E1,7.349865875E0,2.392908920E1,4.209097137E0,2.538382038E1
1.419326737E1,6.072122955E0,2.021755737E1,3.919449463E0,2.147050040E1
1.420321438E1,4.387376404E0,1.641995453E1,3.853436737E0,1.742736220E1
1.421316237E1,2.863545227E0,1.348500778E1,3.623664551E0,1.425399140E1
1.422310937E1,1.840273132E0,1.036429733E1,3.539988556E0,1.110570949E1
1.423305738E1,8.063731384E-1,7.759713593E0,3.710633698E0,8.638992714E0
1.424300438E1,7.783813477E-3,5.462590485E0,3.561843109E0,6.521248479E0
1.425295237E1,-4.658312988E-1,3.298989716E0,3.332669678E0,4.712432400E0
1.426289938E1,-8.656498718E-1,1.456022186E0,3.293600922E0,3.703668092E0
1.427284638E1,-1.033151550E0,-8.427474976E-2,3.411705322E0,3.565702955E0
1.428279437E1,-1.003962250E0,-1.359472961E0,3.522924042E0,3.907313749E0
1.429274138E1,-7.228468323E-1,-2.305954742E0,3.589535522E0,4.327204650E0
1.430268938E1,-3.074606323E-1,-2.956352234E0,3.507356415E0,4.597401396E0
1.431263637E1,1.562750244E-1,-3.386407928E0,3.275638275E0,4.714020222E0
1.432258438E1,6.584806824E-1,-3.657194824E0,2.965034180E0,4.753956087E0
1.433253138E1,9.265731812E-1,-3.891457672E0,2.396217041E0,4.663028713E0
1.434247937E1,1.047970734E0,-4.171375580E0,1.465751953E0,4.543902032E0
1.435242638E1,8.677455139E-1,-4.465064850E0,4.143383789E-1,4.567435022E0
1.436237338E1,6.990463257E-2,-4.666396179E0,-7.223977661E-1,4.722499179E0
1.437232137E1,-8.744815063E-1,-4.794679413E0,-1.908231812E0,5.234024954E0
1.438226775E1,-1.589993591E0,-4.969815216E0,-2.810405731E0,5.926678942E0
1.439221575E1,-2.067949677E0,-5.202880554E0,-3.368594971E0,6.534050352E0
1.440216275E1,-2.305505676E0,-5.337899780E0,-3.777843933E0,6.934020138E0
1.441211075E1,-2.411335602E0,-5.319039001E0,-3.818409576E0,6.977604673E0
1.442205775E1,-2.272424469E0,-5.174290009E0,-3.563639374E0,6.681071444E0
1.443200575E1,-2.127825165E0,-4.952900391E0,-3.114124146E0,6.225482423E0
1.444195275E1,-1.992656250E0,-4.569098511E0,-2.598596191E0,5.621391491E0
1.445189975E1,-2.065404968E0,-4.011957092E0,-2.281854858E0,5.056536264E0
1.446184775E1,-2.100731506E0,-3.444487152E0,-2.028731232E0,4.515895815E0
1.447179475E1,-2.071542206E0,-3.078049164E0,-1.882485352E0,4.160459694E0
1.448174275E1,-1.901795197E0,-2.755170593E0,-1.508712616E0,3.672057152E0
1.449168975E1,-1.353335724E0,-2.179168396E0,-8.725355530E-1,2.709540694E0
1.450163775E1,-5.869294739E-1,-1.480122070E0,1.092727661E-2,1.592283566E0
1.451158475E1,4.790039062E-1,-7.409591675E-1,8.752299500E-1,1.242776205E0
1.452153275E1,1.417552185E0,1.561253357E-1,1.665586395E0,2.192716890E0
1.453147975E1,2.114652557E0,1.031654663E0,2.046693878E0,3.118496852E0
1.454142675E1,2.363285522E0,2.005379791E0,2.337838440E0,3.882287359E0
1.455137475E1,1.701212311E0,3.274440765E0,2.269281006E0,4.331942051E0
1.456132175E1,1.859133911E-1,4.676724701E0,1.185684357E0,4.828267299E0
1.457126975E1,-1.383872223E0,6.094725952E0,-1.948947144E-1,6.252900984E0
1.458121675E1,-2.274370422E0,7.819738770E0,-9.789642334E-1,8.202404904E0
1.459116475E1,-2.534679108E0,9.962981873E0,-2.451901245E-1,1.028327400E1
1.460111175E1,-1.596280518E0,1.289972488E1,1.864373016E0,1.313114238E1
1.461105975E1,3.315605164E-1,1.681692902E1,4.871918793E0,1.751155694E1
1.462100675E1,3.108286285E0,2.112676666E1,8.167914734E0,2.286299509E1
1.463095375E1,5.524860992E0,2.516746399E1,1.037118301E1,2.777565066E1
1.464090175E1,5.960904236E0,2.849998398E1,1.008752289E1,3.081460018E1
1.465084875E1,5.564827881E0,3.084695343E1,7.861052856E0,3.231559991E1
1.466079675E1,5.780978394E0,3.342638947E1,5.849685516E0,3.442327766E1
1.467074375E1,7.630532227E0,3.727174301E1,6.016588440E0,3.851762175E1
1.468069175E1,1.003827530E1,4.011597839E1,8.173602905E0,4.215289406E1
1.469063875E1,1.272758286E1,4.139551758E1,1.076351715E1,4.462548086E1
1.470058675E1,1.408975021E1,4.124418228E1,1.149923721E1,4.507589256E1
1.471053375E1,1.366732864E1,3.835025024E1,9.769733734E0,4.186866684E1
1.472048075E1,1.084389999E1,3.368879379E1,6.431974640E0,3.597075607E1
1.473042875E1,7.600295105E0,2.914708832E1,3.368894348E0,3.030951488E1
1.474037575E1,4.842280426E0,2.544214279E1,1.867366791E0,2.596608111E1
1.475032375E1,2.764750671E0,2.239298355E1,1.937421112E0,2.264604069E1
1.476027075E1,1.406475220E0,1.991533585E1,2.312391357E0,2.009840611E1
1.477021875E1,4.161346436E-1,1.771101974E1,2.745740204E0,1.792742251E1
1.478016575E1,-3.620970154E-1,1.554277863E1,3.083737335E0,1.584987437E1
1.479011275E1,-7.068301392E-1,1.351554428E1,3.155887299E0,1.389709217E1
1.480006075E1,-7.676037598E-1,1.145163620E1,3.069217529E0,1.188062639E1
1.481000775E1,-6.439608765E-1,9.478140106E0,2.869832153E0,9.923999298E0
1.481995575E1,-3.635939026E-1,7.583230591E0,2.513722687E0,7.997273815E0
1.482990275E1,1.317260742E-2,5.865402832E0,2.066602478E0,6.218839900E0
1.483985075E1,4.225712585E-1,4.366569672E0,1.838327179E0,4.756568509E0
1.484979775E1,1.012195129E0,3.090473328E0,1.688039703E0,3.664019979E0
1.485974575E1,1.520538025E0,2.059118042E0,1.551822968E0,2.993352221E0
1.486969275E1,1.979184265E0,1.205592957E0,1.408421173E0,2.711876644E0
1.487963975E1,2.408491516E0,3.583547974E-1,1.299447784E0,2.760038784E0
1.488958775E1,2.685715027E0,-4.971162415E-1,1.269360352E0,3.011887359E0
1.489953475E1,2.681673431E0,-1.337618408E0,1.156794434E0,3.212284041E0
1.490948275E1,2.294279022E0,-2.149829407E0,8.857081604E-1,3.266490725E0
1.491942975E1,1.536405029E0,-3.022215271E0,1.847158813E-1,3.395356464E0
1.492937775E1,6.468049622E-1,-3.832031250E0,-7.972421265E-1,3.967167146E0
1.493932475E1,-2.547702026E-1,-4.537514191E0,-1.823657684E0,4.896904148E0
1.494927275E1,-1.103654938E0,-5.057832184E0,-2.693798218E0,5.835774966E0
1.495921975E1,-1.598974915E0,-5.408852234E0,-3.249891815E0,6.509546841E0
1.496916675E1,-1.771266632E0,-5.625751190E0,-3.409909058E0,6.812777827E0
1.497911475E1,-1.760489044E0,-5.697751465E0,-3.029100952E0,6.688732765E0
1.498906175E1,-1.578617249E0,-5.658832397E0,-2.354902954E0,6.329295730E0
1.499900975E1,-1.426084442E0,-5.501659241E0,-1.492695923E0,5.876232837E0
1.500895675E1,-1.410367126E0,-5.207221527E0,-8.864566040E-1,5.467183624E0
1.501890475E1,-1.594184875E0,-4.924609222E0,-6.405180359E-1,5.215694083E0
1.502885175E1,-1.827250214E0,-4.623734894E0,-5.517526245E-1,5.002219374E0
1.503879975E1,-1.932331696E0,-4.210743713E0,-5.266049194E-1,4.662786843E0
1.504874675E1,-1.987267456E0,-3.660937042E0,-4.806504822E-1,4.193175033E0
1.505869375E1,-1.799408112E0,-2.984942780E0,-2.715353394E-1,3.495923968E0
1.506864175E1,-1.438209229E0,-2.187850342E0,1.559756470E-1,2.622873101E0
1.507858875E1,-9.446855164E-1,-1.294957123E0,5.550457764E-1,1.696296109E0
1.508853675E1,-4.108955383E-1,-2.902464294E-1,9.303153992E-1,1.057622274E0
1.509848375E1,1.766326904E-1,7.915539551E-1,1.503922577E0,1.708666114E0
1.510843175E1,7.499404907E-1,1.820364532E0,2.221979370E0,2.968725331E0
1.511837875E1,9.328601074E-1,2.887196045E0,2.506088562E0,3.935302893E0
1.512832675E1,8.547225952E-1,4.023483124E0,2.465672607E0,4.795676028E0
1.513827375E1,4.724176025E-1,5.218597870E0,2.336341553E0,5.737197397E0
1.514822075E1,-2.749781799E-1,6.541995850E0,2.198777618E0,6.907093869E0
1.515816875E1,-1.255289612E0,8.007747803E0,1.766925659E0,8.295890740E0
1.516811575E1,-2.305355988E0,9.860295410E0,9.339079285E-1,1.016918265E1
1.517806375E1,-2.560874634E0,1.238943604E1,6.764433289E-1,1.266940329E1
1.518801075E1,-1.621727600E0,1.535686523E1,1.400337982E0,1.550562016E1
1.519795875E1,-4.655319214E-1,1.869522308E1,3.560346222E0,1.903691549E1
1.520790575E1,9.931846619E-1,2.199541031E1,5.584287415E0,2.271494566E1
1.521785375E1,2.077380066E0,2.472842697E1,6.097869415E0,2.555375941E1
1.522780075E1,2.002685394E0,2.663231781E1,5.184618530E0,2.720609068E1
1.523774775E1,1.485660553E0,2.814447327E1,3.515738983E0,2.840209470E1
1.524769575E1,1.334175568E0,2.999522461E1,2.678529968E0,3.014412126E1
1.525764275E1,2.222129059E0,3.334974884E1,3.668870544E0,3.362445860E1
1.526759075E1,4.589905243E0,3.683270599E1,6.414161682E0,3.766771736E1
1.527753775E1,7.664810944E0,3.904764999E1,9.366322632E0,4.088026781E1
1.528748575E1,9.910740509E0,3.960299515E1,1.120689514E1,4.233455445E1
1.529743275E1,1.032268387E1,3.775299225E1,1.119521942E1,4.070846551E1
1.530738075E1,8.454418945E0,3.380121002E1,9.239835663E0,3.604682457E1
1.531732775E1,5.948180695E0,2.922612396E1,6.352789307E0,3.049434550E1
1.532727475E1,3.693120117E0,2.529260376E1,4.374503174E0,2.593243566E1
1.533722275E1,1.875449982E0,2.227652573E1,3.403771820E0,2.261297357E1
1.534716975E1,7.628137207E-1,1.968975494E1,2.996019745E0,1.993099267E1
1.535711775E1,1.601669312E-2,1.715193237E1,2.515369263E0,1.733540087E1
1.536706475E1,-6.370751953E-1,1.469673798E1,1.955383759E0,1.483992916E1
1.537701275E1,-1.040635986E0,1.230156876E1,1.456171875E0,1.243108819E1
1.538695954E1,-1.100062408E0,1.023032593E1,1.098116455E0,1.034773239E1
1.539690754E1,-9.663903809E-1,8.725056152E0,7.665559387E-1,8.811817249E0
1.540685454E1,-5.836363220E-1,7.072642365E0,1.971400452E-1,7.099420087E0
1.541680254E1,1.998344421E-1,5.327271881E0,-4.326004028E-2,5.331194137E0
1.542674954E1,9.162446594E-1,3.929029541E0,1.004411316E-1,4.035698927E0
1.543669654E1,1.489851837E0,2.799777832E0,3.513194275E-1,3.190899520E0
1.544664454E1,1.921703796E0,1.802850952E0,8.168513489E-1,2.758706792E0
1.545659154E1,2.153272247E0,8.650511169E-1,1.415905609E0,2.718397230E0
1.546653954E1,2.176473999E0,-2.948867798E-2,2.147584076E0,3.057781224E0
1.547648654E1,2.089654541E0,-8.312214661E-1,2.750829620E0,3.553118184E0
1.548643454E1,1.989512787E0,-1.611698456E0,3.065924377E0,3.994449315E0
1.549638154E1,1.658551025E0,-2.400258636E0,2.990181885E0,4.177705199E0
1.550632954E1,1.023122406E0,-3.197650452E0,2.367626495E0,4.108211666E0
1.551627654E1,2.719844055E-1,-3.874991913E0,1.179996185E0,4.059794187E0
1.552622354E1,-7.041357422E-1,-4.361180878E0,1.779798889E-1,4.421242205E0
1.553617154E1,-1.616638184E0,-4.714146881E0,-6.935078430E-1,5.031665029E0
1.554611854E1,-2.075434113E0,-4.899760895E0,-1.579665070E0,5.550713946E0
1.555606654E1,-2.219734039E0,-4.931494904E0,-2.192490692E0,5.835569949E0
1.556601354E1,-2.287692719E0,-4.836292877E0,-2.506537628E0,5.908129793E0
1.557596154E1,-2.210303650E0,-4.711302795E0,-2.498454437E0,5.772702212E0
1.558590854E1,-2.049987030E0,-4.442312164E0,-2.139949951E0,5.340034642E0
1.559585654E1,-1.830393677E0,-4.001478882E0,-1.598825226E0,4.681710836E0
1.560580354E1,-1.553170166E0,-3.470832367E0,-1.225202179E0,3.995013800E0
1.561575054E1,-1.294508057E0,-2.732417908E0,-8.937913513E-1,3.152891008E0
1.562569854E1,-1.025517426E0,-2.116897888E0,-7.376660156E-1,2.465176223E0
1.563564554E1,-7.008425903E-1,-1.572030945E0,-7.948471069E-1,1.895849032E0
1.564559354E1,-4.245172119E-1,-1.121467896E0,-8.336164856E-1,1.460418279E0
1.565554054E1,-3.433859253E-1,-6.315367126E-1,-7.571255493E-1,1.044026633E0
1.566548854E1,-1.984872437E-1,-4.026626587E-2,-5.227130127E-1,5.605777838E-1
1.567543554E1,2.339634705E-1,5.349874878E-1,-1.603166199E-1,6.055179074E-1
1.568538354E1,6.207591248E-1,1.167272644E0,2.317181396E-1,1.342222267E0
1.569533054E1,9.231303406E-1,1.941013641E0,6.033952332E-1,2.232440232E0
1.570527754E1,1.126257935E0,2.746039581E0,1.063837738E0,3.152925792E0
1.571522554E1,1.025367737E0,3.621868286E0,1.422042847E0,4.023868131E0
1.572517254E1,3.806584167E-1,4.620142365E0,1.448687439E0,4.856882909E0
1.573512054E1,-3.177891541E-1,6.053262177E0,1.485361176E0,6.240935086E0
1.574506754E1,-1.017733612E0,8.105045471E0,1.770368500E0,8.358334070E0
1.575501554E1,-1.354383545E0,1.077878540E1,2.601889343E0,1.117078322E1
1.576496254E1,-3.460803223E-1,1.409828247E1,4.027075653E0,1.466624282E1
1.577491054E1,1.651515656E0,1.844644043E1,6.285279694E0,1.955769438E1
1.578485754E1,3.721261597E0,2.345008530E1,8.749156036E0,2.530418976E1
1.579480454E1,5.022206268E0,2.799493423E1,1.056083862E1,3.033925199E1
1.580475254E1,6.026916962E0,3.131562881E1,1.100541412E1,3.373590782E1
1.581469954E1,6.475534058E0,3.401376801E1,9.902657318E0,3.601293625E1
1.582464754E1,7.072043610E0,3.576273102E1,7.988288269E0,3.732022883E1
1.583459454E1,7.931107178E0,3.709241592E1,6.786287842E0,3.853314784E1
1.584454254E1,9.065298615E0,3.880590271E1,6.101012878E0,4.031501063E1
1.585448954E1,9.790839844E0,3.977319122E1,5.568420410E0,4.133732685E1
1.586443754E1,9.470206604E0,3.909764603E1,4.721481628E0,4.050435935E1
1.587438454E1,8.125403137E0,3.682537125E1,3.883374481E0,3.791056239E1
1.588433254E1,6.561006317E0,3.353970383E1,3.549868011E0,3.435927967E1
1.589427954E1,4.912035370E0,2.963073257E1,3.824247437E0,3.027760349E1
1.590422654E1,3.473826141E0,2.550067108E1,4.169579315E0,2.607176797E1
1.591417454E1,2.011067963E0,2.160666870E1,4.641098785E0,2.219081622E1
1.592412154E1,9.677375793E-1,1.804497528E1,5.156626740E0,1.879224436E1
1.593406954E1,3.739224243E-1,1.498159561E1,5.499563599E0,1.596349664E1
1.594401654E1,2.975811768E-1,1.229288681E1,5.428760834E0,1.344154250E1
1.595396454E1,1.036295013E0,1.019185593E1,5.002447357E0,1.140054008E1
1.596391154E1,1.688638458E0,8.705895996E0,4.097878418E0,9.769172558E0
1.597385954E1,1.844913483E0,7.472910004E0,2.454895020E0,8.079269722E0
1.598380654E1,1.553619232E0,6.086642761E0,5.587879944E-1,6.306599468E0
1.599375354E1,1.521585846E0,4.456382904E0,-9.707313538E-1,4.808002853E0
1.600370154E1,1.651365967E0,2.805765381E0,-1.746717682E0,3.694638222E0
1.601364854E1,1.721869354E0,1.160985718E0,-1.298250275E0,2.449117328E0
1.602359654E1,1.969304810E0,-3.176394653E-1,-4.980143738E-1,2.055985063E0
1.603354354E1,2.068698120E0,-1.555565186E0,1.197509766E-3,2.588299904E0
1.604349154E1,1.805695038E0,-2.533481598E0,5.502557373E-1,3.159405791E0
1.605343854E1,1.430874481E0,-3.451821899E0,8.740324402E-1,3.837500347E0
1.606338654E1,7.417076111E-1,-4.221970367E0,7.461982727E-1,4.351089039E0
1.607333354E1,-3.174897766E-1,-5.020559692E0,-6.331832886E-2,5.030986841E0
1.608328154E1,-1.328936462E0,-5.615871735E0,-1.031954041E0,5.862509412E0
1.609322854E1,-1.807640991E0,-5.949228516E0,-2.232756958E0,6.606518714E0
1.610317554E1,-1.811682587E0,-6.290668488E0,-3.659589844E0,7.499820107E0
1.611312354E1,-1.732197876E0,-6.300997009E0,-4.362827454E0,7.857311002E0
1.612307054E1,-1.554367676E0,-6.196214905E0,-4.632566528E0,7.891122269E0
1.613301854E1,-1.338516541E0,-5.957910461E0,-4.443809052E0,7.552202492E0
1.614296554E1,-1.200802917E0,-5.499713287E0,-3.956123199E0,6.880384049E0
1.615291354E1,-1.024020538E0,-5.000651093E0,-3.380570068E0,6.122367467E0
1.616286054E1,-9.656419373E-1,-4.486919403E0,-2.486629028E0,5.219984100E0
1.617280854E1,-8.376580811E-1,-3.905229034E0,-1.639241180E0,4.317359902E0
1.618275554E1,-7.310797119E-1,-3.291954346E0,-8.614585876E-1,3.480452824E0
1.619270254E1,-7.047344971E-1,-2.683170319E0,-4.511618042E-1,2.810622821E0
1.620265054E1,-6.941065979E-1,-2.069895630E0,1.496887207E-2,2.183226043E0
1.621259754E1,-6.261479187E-1,-1.502276001E0,3.556604004E-1,1.665949795E0
1.622254554E1,-4.575984192E-1,-1.083596649E0,6.077362061E-1,1.323979346E0
1.623249254E1,-6.616241455E-2,-5.888754272E-1,9.493258667E-1,1.119093980E0
1.624244054E1,4.758604431E-1,1.296304321E-1,1.333726501E0,1.421996340E0
1.625238754E1,1.199904785E0,1.028062134E0,1.738335114E0,2.349147124E0
1.626233554E1,2.131717072E0,2.320773926E0,2.175725555E0,3.829359082E0
1.627228254E1,3.420237579E0,4.224365387E0,2.755469971E0,6.093923431E0
1.628223054E1,4.503983917E0,6.467301178E0,3.056194611E0,8.452939202E0
1.629217754E1,3.881727905E0,8.854985962E0,2.619702301E0,1.001705686E1
1.630212454E1,2.486778717E0,1.099448685E1,1.873653717E0,1.142687130E1
1.631207254E1,1.268312531E0,1.281185760E1,2.210603027E0,1.306288933E1
1.632201954E1,-5.610333252E-1,1.539832901E1,3.335513763E0,1.576543519E1
1.633196754E1,-1.401984558E0,1.803225174E1,5.367238770E0,1.886623745E1
1.634191454E1,-1.785786438E-1,2.117122421E1,8.453670502E0,2.279730620E1
1.635186254E1,5.568420410E-1,2.523781769E1,1.076621155E1,2.744392147E1
1.636180954E1,1.226399689E0,2.854698624E1,1.170790329E1,3.087894880E1
1.637175754E1,2.157613220E0,3.004297531E1,1.161315033E1,3.228158796E1
1.638170500E1,3.160827026E0,3.113555328E1,1.084764221E1,3.312227117E1
1.639165200E1,5.006938019E0,3.259412018E1,9.669891357E0,3.436499523E1
1.640160000E1,7.060367889E0,3.415193069E1,7.741750946E0,3.572307199E1
1.641154700E1,8.194259949E0,3.505081146E1,5.226231995E0,3.637332513E1
1.642149500E1,8.240064697E0,3.436254272E1,3.478616180E0,3.550751722E1
1.643144200E1,7.423363037E0,3.246284317E1,3.314557343E0,3.346533723E1
1.644139000E1,5.814209290E0,3.046135529E1,4.130809937E0,3.128518477E1
1.645133700E1,4.093088379E0,2.828982101E1,5.302273865E0,2.907200464E1
1.646128500E1,2.845881958E0,2.573298798E1,6.427783356E0,2.667587137E1
1.647123200E1,2.039508820E0,2.309442490E1,7.314689026E0,2.431083571E1
1.648118000E1,1.585053864E0,2.054687256E1,7.787855072E0,2.203036664E1
1.649112700E1,1.507664795E0,1.783645889E1,7.630083160E0,1.945842974E1
1.650107400E1,1.776805115E0,1.514325943E1,6.778204651E0,1.668590426E1
1.651102200E1,2.115700378E0,1.266785706E1,5.413791962E0,1.393771624E1
1.652096900E1,2.145338745E0,1.039333694E1,3.835923157E0,1.128442456E1
1.653091700E1,1.892065430E0,8.186027069E0,2.199526062E0,8.684979313E0
1.654086400E1,1.721869354E0,5.952222290E0,8.518785095E-1,6.254556839E0
1.655081200E1,1.522783356E0,3.900888062E0,1.172062683E-1,4.189216410E0
1.656075900E1,1.251098328E0,2.086211700E0,-2.028282166E-1,2.441037806E0
1.657070700E1,1.067729645E0,5.225633240E-1,-1.264869690E-1,1.195457224E0
1.658065400E1,9.975256348E-1,-7.520361328E-1,2.348616028E-1,1.271131665E0
1.659060100E1,9.617500305E-1,-1.781894531E0,6.474037170E-1,2.125851080E0
1.660054900E1,7.298822021E-1,-2.525997162E0,9.045689392E-1,2.780581712E0
