"Time (s)","Acceleration x (m/s^2)","Acceleration y (m/s^2)","Acceleration z (m/s^2)","Absolute acceleration (m/s^2)"
-1.484581735E-4,4.442611542E0,3.231031036E0,8.901239777E0,1.045984839E1
9.799541673E-3,3.792513428E0,2.696193237E0,8.697363739E0,9.863911601E0
1.974754175E-2,3.530857544E0,2.558329926E0,8.793314209E0,9.815007987E0
2.969454182E-2,3.716321869E0,2.891537018E0,9.277706909E0,1.040422414E1
3.964254167E-2,3.665278015E0,3.170706482E0,1.035546570E1,1.143342960E1
4.959054175E-2,3.032992859E0,3.336112518E0,1.147259262E1,1.232676251E1
5.953854183E-2,2.475102997E0,3.317251740E0,1.206356369E1,1.275381758E1
6.948554167E-2,2.197280731E0,3.013832703E0,1.222747284E1,1.278367405E1
7.943354174E-2,2.353256378E0,2.799777832E0,1.183843185E1,1.239052219E1
8.938154182E-2,2.981949005E0,2.939736786E0,1.123428818E1,1.198929952E1
9.932954167E-2,3.543581085E0,3.158432007E0,1.084135529E1,1.183501771E1
1.092765417E-1,3.811374207E0,3.219355316E0,1.059451859E1,1.171045029E1
1.192245418E-1,3.750600586E0,3.138523407E0,1.059511734E1,1.166935497E1
1.291725417E-1,3.539988556E0,2.987337799E0,1.055724609E1,1.152870987E1
1.391195417E-1,3.484154663E0,2.856360168E0,1.036669235E1,1.130338168E1
1.490675418E-1,3.507805481E0,2.748733978E0,1.009485764E1,1.103478085E1
1.590155417E-1,3.548221436E0,2.628234558E0,9.751920776E0,1.070501990E1
1.689635417E-1,3.536695404E0,2.499502258E0,9.507179718E0,1.044711406E1
1.789105418E-1,3.489992523E0,2.461331635E0,9.467661896E0,1.038628052E1
1.888585417E-1,3.396287384E0,2.440225525E0,9.455537109E0,1.033908365E1
1.988065417E-1,3.413052521E0,2.367027740E0,9.378597107E0,1.025718439E1
2.087535418E-1,3.508853302E0,2.356100464E0,9.276958466E0,1.019437194E1
2.187015417E-1,3.520379333E0,2.382595367E0,9.264234924E0,1.019293285E1
2.286495417E-1,3.395688629E0,2.394570465E0,9.384135590E0,1.026287824E1
2.385975418E-1,3.223247223E0,2.387684784E0,9.427844696E0,1.024571212E1
2.485445417E-1,3.107388153E0,2.371967468E0,9.308692474E0,1.009622932E1
2.584925417E-1,2.983595581E0,2.362986145E0,9.017847290E0,9.788110944E0
2.684405418E-1,3.008892975E0,2.399659882E0,8.577163696E0,9.401039387E0
2.783885417E-1,3.111579437E0,2.426304474E0,8.024213562E0,8.941861287E0
2.883355417E-1,3.210823059E0,2.421514435E0,7.567213898E0,8.569471573E0
2.982835418E-1,3.322041779E0,2.346520386E0,7.240293732E0,8.304454998E0
3.082315417E-1,3.528612213E0,2.260299683E0,7.077731781E0,8.225226196E0
3.181785417E-1,3.819607086E0,2.181563416E0,7.096293182E0,8.349011568E0
3.281265418E-1,4.038152618E0,2.082170105E0,7.289990387E0,8.589881766E0
3.380745417E-1,4.121828613E0,1.892514496E0,7.429799652E0,8.704769101E0
3.480225417E-1,4.275708618E0,1.689686279E0,7.359146576E0,8.677197833E0
3.579695418E-1,4.485272827E0,1.561702423E0,7.322622528E0,8.727965827E0
3.679175416E-1,4.587360535E0,1.401086426E0,7.468419342E0,8.876046829E0
3.778655417E-1,4.631369019E0,1.212179260E0,7.716902618E0,9.081274336E0
3.878125418E-1,4.697531433E0,1.033301239E0,7.905660095E0,9.253862683E0
3.977605416E-1,4.799918518E0,9.193881226E-1,8.065527649E0,9.430653665E0
4.077085417E-1,5.043462067E0,8.948391724E-1,8.334218903E0,9.782456311E0
4.176565418E-1,5.202730865E0,8.396040344E-1,8.649613037E0,1.012863017E1
4.276035416E-1,5.279970245E0,7.574249268E-1,8.795709229E0,1.028670400E1
4.375515417E-1,5.249134369E0,6.783892822E-1,8.832981720E0,1.029733896E1
4.474995418E-1,5.012925568E0,6.012995911E-1,8.795709229E0,1.014176931E1
4.574465416E-1,4.867727509E0,6.182144165E-1,8.675209808E0,9.966756011E0
4.673945417E-1,4.878954163E0,6.785389709E-1,8.568182373E0,9.883236213E0
4.773425418E-1,4.818779297E0,7.658074951E-1,8.518785095E0,9.817168356E0
4.872905416E-1,4.653672638E0,8.494834900E-1,8.700806580E0,9.903652173E0
4.972375417E-1,4.382286987E0,9.054670715E-1,8.854985962E0,9.921445774E0
5.071850417E-1,4.108805695E0,9.029223633E-1,8.998986511E0,9.933746084E0
5.171330418E-1,3.907474365E0,8.345146179E-1,9.101972351E0,9.940355690E0
5.270810418E-1,3.799249420E0,7.912545776E-1,9.159003754E0,9.947247344E0
5.370280417E-1,3.738026733E0,7.442523193E-1,9.172775116E0,9.933104183E0
5.469760417E-1,3.749403076E0,6.472540283E-1,9.137298889E0,9.897837754E0
5.569240418E-1,3.776496735E0,5.569917297E-1,9.066945190E0,9.837767148E0
5.668710417E-1,3.785627747E0,5.375321960E-1,8.963061218E0,9.744556670E0
5.768190417E-1,3.779041443E0,5.334906006E-1,8.900641022E0,9.684377990E0
5.867670418E-1,3.767515411E0,5.251080322E-1,8.892408142E0,9.671857804E0
5.967150417E-1,3.703448639E0,5.101391602E-1,8.933722229E0,9.684377453E0
6.066620417E-1,3.542084198E0,4.791535950E-1,8.938661957E0,9.626818073E0
6.166100418E-1,3.356769562E0,4.436773682E-1,8.861572266E0,9.486422641E0
6.265580417E-1,3.200793915E0,5.022056580E-1,8.709488525E0,9.292603649E0
6.365050417E-1,3.055595856E0,6.179150391E-1,8.597221985E0,9.144982826E0
6.464530418E-1,2.825673981E0,6.644682312E-1,8.563092957E0,9.041709598E0
6.564010417E-1,2.533631287E0,6.192622375E-1,8.612490234E0,8.998764429E0
6.663490417E-1,2.299218750E0,4.713697815E-1,8.759783936E0,9.068760165E0
6.762960418E-1,2.211800537E0,2.607577515E-1,8.956474915E0,9.229219854E0
6.862440417E-1,2.286944275E0,9.864486694E-2,9.070986786E0,9.355353879E0
6.961920417E-1,2.456541595E0,6.286926270E-3,9.212442627E0,9.534345037E0
7.061400418E-1,2.599793701E0,-4.071533203E-2,9.352850647E0,9.707543472E0
7.160870417E-1,2.655926971E0,-5.254074097E-2,9.429042206E0,9.796098485E0
7.260350417E-1,2.595003662E0,-6.421646118E-2,9.548344116E0,9.894899854E0
7.359830418E-1,2.455793152E0,-9.999206543E-2,9.624086609E0,9.932973446E0
7.459300417E-1,2.288291473E0,-1.359173584E-1,9.642198944E0,9.910941019E0
7.558780417E-1,1.785636749E0,-3.772155762E-2,9.596394196E0,9.761183487E0
7.658260418E-1,-1.798509979E0,1.513053589E0,1.039513321E1,1.065752146E1
7.757740417E-1,-3.419189758E0,3.629951477E0,1.537378006E1,1.616231789E1
7.857210417E-1,-6.798861694E-1,3.933969269E0,1.519115982E1,1.570699513E1
7.956690418E-1,4.662803650E-1,1.904788971E0,9.967023468E0,1.015810982E1
8.056170417E-1,5.313949585E-1,8.881031799E-1,9.266929321E0,9.324542182E0
8.155640417E-1,9.116043091E-1,1.255289612E0,1.113609238E1,1.124363499E1
8.255120418E-1,1.428030396E0,1.934876404E0,1.112681168E1,1.138371449E1
8.354600416E-1,2.017803955E0,2.638263702E0,9.579629059E0,1.013909567E1
8.454080417E-1,1.968256989E0,3.031645660E0,1.048494644E1,1.109049200E1
8.553550418E-1,1.624571686E0,2.165397034E0,1.051428543E1,1.085718083E1
8.653030416E-1,1.912872162E0,9.120533752E-1,9.758806458E0,9.986251786E0
8.752510417E-1,2.005828857E0,5.688171387E-2,9.324709167E0,9.538175192E0
8.851980418E-1,1.243763580E0,-1.624122620E-1,9.057365112E0,9.143806011E0
8.951460416E-1,2.201921082E-1,3.727249146E-2,8.901688843E0,8.904489770E0
9.050940417E-1,-5.746549988E-1,3.228785706E-1,8.775501251E0,8.800221653E0
9.150420418E-1,-8.888516235E-1,7.137158203E-1,8.887618103E0,8.960424266E0
9.249890416E-1,-5.240602112E-1,9.401948547E-1,8.901239777E0,8.966084710E0
9.349370417E-1,-2.993774414E-4,8.928932190E-1,8.977581024E0,9.021874497E0
9.448850418E-1,3.606001282E-1,7.473957825E-1,9.307494965E0,9.344415200E0
9.548330416E-1,3.549119568E-1,6.276448059E-1,9.503437500E0,9.530751535E0
9.647800417E-1,1.329235840E-1,5.921685791E-1,9.553433533E0,9.572691605E0
9.747280418E-1,2.043251038E-1,7.436535645E-1,9.170380096E0,9.202751789E0
9.846760416E-1,2.682421875E-1,9.310638428E-1,9.143585815E0,9.194780874E0
9.946230417E-1,3.492237854E-1,1.114282837E0,8.951834564E0,9.027675535E0
1.004571042E0,3.588038635E-1,1.250200195E0,8.718320160E0,8.814808401E0
1.014519042E0,3.927832031E-1,1.332079926E0,8.473728790E0,8.586780257E0
1.024467042E0,5.201683044E-1,1.468596039E0,8.232879639E0,8.379000927E0
1.034414042E0,3.493734741E-1,1.626218262E0,8.340206451E0,8.504451265E0
1.044362042E0,-1.067280579E-1,1.622476044E0,8.852740631E0,9.000824189E0
1.054310042E0,-6.599775696E-1,1.428030396E0,9.584868164E0,9.713111701E0
1.064258042E0,-1.162632294E0,1.122366028E0,1.012958542E1,1.025767616E1
1.074205042E0,-1.588047638E0,9.237290955E-1,1.039722885E1,1.055829241E1
1.084153042E0,-1.846859436E0,9.163943481E-1,1.009351044E1,1.030192319E1
1.094101042E0,-1.850451965E0,1.028511200E0,9.348359985E0,9.585084360E0
1.104048042E0,-7.673043823E-1,1.227896576E0,8.773255920E0,8.891934855E0
1.113996042E0,-4.020639038E-1,1.645528107E0,8.951086121E0,9.109959433E0
1.123944042E0,-9.898915100E-1,2.117346954E0,8.901389465E0,9.203139559E0
1.133892042E0,-9.160949707E-1,2.211201782E0,8.375233612E0,8.710521303E0
1.143839042E0,-7.191046143E-1,2.069895630E0,8.070916443E0,8.363089835E0
1.153787042E0,-6.599775696E-1,1.850302277E0,8.174201660E0,8.406947228E0
1.163735042E0,-7.866142273E-1,1.593586121E0,8.340206451E0,8.527445240E0
1.173682042E0,-1.025966492E0,1.359023895E0,8.665929108E0,8.831640872E0
1.183630042E0,-1.157842255E0,1.192420349E0,9.212742004E0,9.361467845E0
1.193578042E0,-1.160686340E0,1.030906219E0,9.607770538E0,9.732379726E0
1.203526042E0,-1.120869141E0,9.074130249E-1,9.705517273E0,9.812074784E0
1.213473042E0,-1.021026764E0,9.095086670E-1,9.609117737E0,9.705918058E0
1.223421042E0,-7.436535645E-1,1.106049957E0,9.659562836E0,9.751077956E0
1.233369042E0,-4.342469788E-1,1.266815643E0,9.914632416E0,1.000466532E1
1.243316042E0,-2.174977112E-1,1.268611908E0,1.019275406E1,1.027370025E1
1.253264042E0,-1.124162292E-1,1.174906769E0,1.054841446E1,1.061424001E1
1.263212042E0,-4.415817261E-2,1.087937622E0,1.095751373E1,1.101147880E1
1.273160042E0,1.348695374E-1,1.140927429E0,1.130778534E1,1.136599817E1
1.283107042E0,2.769241333E-1,1.324745178E0,1.145507904E1,1.153475065E1
1.293055042E0,2.644999695E-1,1.373992767E0,1.149744095E1,1.158226941E1
1.303003042E0,1.591191101E-1,1.208287354E0,1.129625931E1,1.136181110E1
1.312951042E0,7.289840698E-2,1.029409332E0,1.083117645E1,1.088022891E1
1.322898042E0,-2.933898926E-2,1.032403107E0,1.039603134E1,1.044720942E1
1.332846042E0,-2.083666992E-1,1.188827820E0,1.016296600E1,1.023438353E1
1.342794042E0,-4.632865906E-1,1.269510040E0,1.008393036E1,1.017408186E1
1.352741042E0,-6.915618896E-1,1.198258209E0,1.023721161E1,1.033027503E1
1.362689042E0,-8.427474976E-1,1.023870850E0,1.051787796E1,1.060114577E1
1.372637042E0,-7.861651611E-1,8.427474976E-1,1.072280182E1,1.078456109E1
1.382585042E0,-6.387217712E-1,6.589297485E-1,1.075947556E1,1.079854009E1
1.392532042E0,-5.878276062E-1,5.246589661E-1,1.061981598E1,1.064900464E1
1.402480042E0,-6.569837952E-1,4.950205994E-1,1.034289185E1,1.037555227E1
1.412428042E0,-7.387138367E-1,5.528004456E-1,9.979297943E0,1.002185980E1
1.422375042E0,-7.646099854E-1,6.355783081E-1,9.698032837E0,9.748868094E0
1.432323042E0,-8.327183533E-1,6.517446899E-1,9.427695007E0,9.486813171E0
1.442271042E0,-8.912466431E-1,5.375321960E-1,9.333690491E0,9.391540854E0
1.452219042E0,-9.862989807E-1,3.748205566E-1,9.235345001E0,9.295422175E0
1.462166042E0,-1.152752838E0,2.173480225E-1,9.154662781E0,9.229514066E0
1.472114042E0,-1.390757904E0,9.310638428E-2,9.313482513E0,9.417209400E0
1.482062042E0,-1.644330597E0,-5.733078003E-2,9.571246490E0,9.711635769E0
1.492009042E0,-1.859133911E0,-2.516267395E-1,9.748927002E0,9.927803010E0
1.501957042E0,-1.903591461E0,-3.962260437E-1,9.960736542E0,1.014874022E1
1.511904667E0,-1.781894531E0,-4.363426208E-1,1.001163071E1,1.017832464E1
1.521852667E0,-1.566642151E0,-3.540138245E-1,9.845775604E0,9.975920542E0
1.531799667E0,-1.399140472E0,-1.893562317E-1,9.573641510E0,9.677192858E0
1.541747667E0,-1.402433624E0,7.649093628E-2,9.319020996E0,9.424267784E0
1.551695667E0,-1.573378143E0,3.159928894E-1,9.291627960E0,9.429195111E0
1.561643667E0,-1.825154572E0,3.778143311E-1,9.334139557E0,9.518408173E0
1.571590667E0,-1.933229828E0,3.441343689E-1,9.298064575E0,9.503147419E0
1.581538667E0,-1.799258423E0,2.902464294E-1,9.169931030E0,9.349289222E0
1.591486667E0,-1.498234406E0,2.827619934E-1,9.042845306E0,9.170480463E0
1.601433667E0,-1.155596924E0,3.682342529E-1,8.788973236E0,8.872263029E0
1.611381667E0,-7.958949280E-1,5.804928589E-1,8.648864594E0,8.704784860E0
1.621329667E0,-4.947212219E-1,8.611592102E-1,8.688681793E0,8.745257891E0
1.631277667E0,-3.390449524E-1,1.040336609E0,8.855884094E0,8.923224464E0
1.641224667E0,-4.132905579E-1,9.930349731E-1,9.138945465E0,9.202024329E0
1.651172667E0,-6.845265198E-1,7.104226685E-1,9.549691315E0,9.600514628E0
1.661120667E0,-9.864486694E-1,2.594105530E-1,9.996212769E0,1.004811647E1
1.671067667E0,-1.270408173E0,-2.055226135E-1,1.037612274E1,1.045562526E1
1.681015667E0,-1.376238098E0,-5.053491211E-1,1.056383240E1,1.066508153E1
1.690963667E0,-1.221759338E0,-5.613327026E-1,1.044048889E1,1.052670882E1
1.700911667E0,-8.484356689E-1,-3.369493103E-1,9.953701172E0,9.995476224E0
1.710858667E0,-4.017645264E-1,1.279838562E-1,9.377399597E0,9.386874763E0
1.720806667E0,-2.155517578E-2,6.682104492E-1,8.822204132E0,8.847499962E0
1.730754667E0,1.356179810E-1,1.067579956E0,8.359815674E0,8.428798093E0
1.740701667E0,-6.242019653E-2,1.181193695E0,8.131989441E0,8.217564548E0
1.750649667E0,-4.980143738E-1,1.009500732E0,8.083939362E0,8.161935166E0
1.760597667E0,-9.024732971E-1,7.399113464E-1,8.114775238E0,8.198262256E0
1.770545667E0,-1.044078827E0,6.030958557E-1,8.286318512E0,8.373583444E0
1.780492667E0,-9.907896423E-1,5.956114197E-1,8.510103149E0,8.588263660E0
1.790440667E0,-9.370513916E-1,6.206094360E-1,8.708590393E0,8.780818186E0
1.800388667E0,-8.572673035E-1,6.614744568E-1,8.866811371E0,8.932681544E0
1.810336667E0,-6.703060913E-1,6.670129395E-1,9.008267212E0,9.057764331E0
1.820283667E0,-4.803511047E-1,6.616241455E-1,9.187594299E0,9.223902249E0
1.830231667E0,-4.085005188E-1,6.212081909E-1,9.349557495E0,9.379072323E0
1.840179667E0,-5.496569824E-1,4.683760071E-1,9.304950256E0,9.332930845E0
1.850126667E0,-8.592132568E-1,2.324665833E-1,9.127868500E0,9.171165219E0
1.860074667E0,-1.169517975E0,1.990859985E-2,9.000184021E0,9.075873570E0
1.870022667E0,-1.387165375E0,-1.408570862E-1,8.955127716E0,9.063022725E0
1.879970667E0,-1.591041412E0,-2.418969727E-1,9.011410675E0,9.153985431E0
1.889917667E0,-1.689835968E0,-1.950444031E-1,9.189390564E0,9.345506239E0
1.899865667E0,-1.657503204E0,-7.125183105E-2,9.479786682E0,9.623863530E0
1.909813667E0,-1.544039154E0,4.490661621E-2,9.870623932E0,9.990760247E0
1.919760667E0,-1.480720825E0,1.245410156E-1,1.038809784E1,1.049383730E1
1.929708667E0,-1.463057556E0,1.326242065E-1,1.096424973E1,1.106222847E1
1.939656667E0,-1.494791565E0,3.906875610E-2,1.141601028E1,1.151352331E1
1.949604667E0,-1.534459076E0,-7.529342651E-2,1.169458099E1,1.179506076E1
1.959551667E0,-1.590442657E0,-1.725910950E-1,1.174846893E1,1.185688904E1
1.969499667E0,-1.644480286E0,-1.728904724E-1,1.151121231E1,1.162936866E1
1.979447667E0,-1.734143829E0,-6.765930176E-2,1.105885300E1,1.119419770E1
1.989394667E0,-1.781295776E0,1.553768921E-1,1.062101349E1,1.077047279E1
1.999342667E0,-1.698667603E0,3.887416077E-1,1.039453445E1,1.053958909E1
2.009290667E0,-1.551972656E0,5.510041809E-1,1.028136978E1,1.041243436E1
2.019238667E0,-1.424138489E0,6.345304871E-1,1.023122406E1,1.034933549E1
2.029185667E0,-1.414109344E0,6.535409546E-1,1.019739441E1,1.031570035E1
2.039133667E0,-1.456471252E0,6.514453125E-1,1.012763947E1,1.025254947E1
2.049081667E0,-1.477128296E0,6.318360901E-1,9.946665802E0,1.007557866E1
2.059028667E0,-1.485361176E0,6.619235229E-1,9.709259491E0,9.844498994E0
2.068976667E0,-1.469494171E0,7.710466003E-1,9.518106995E0,9.661691712E0
2.078924667E0,-1.398841095E0,9.202862549E-1,9.373208313E0,9.521592161E0
2.088872667E0,-1.341210938E0,1.056502991E0,9.168583832E0,9.326198305E0
2.098819667E0,-1.344653778E0,1.140328674E0,9.031468964E0,9.201949517E0
2.108767667E0,-1.459914093E0,1.215173035E0,8.933572540E0,9.133275042E0
2.118715667E0,-1.610650635E0,1.259780273E0,8.824150085E0,9.057972540E0
2.128663667E0,-1.676363983E0,1.355131989E0,8.769364014E0,9.030411071E0
2.138610667E0,-1.616488495E0,1.479673004E0,8.843908997E0,9.111377151E0
2.148558667E0,-1.445993042E0,1.623972931E0,8.934021606E0,9.194831484E0
2.158506667E0,-1.338366852E0,1.687141571E0,8.983269196E0,9.237791833E0
2.168453667E0,-1.375789032E0,1.647923126E0,8.968300323E0,9.221651521E0
2.178401667E0,-1.486858063E0,1.524130554E0,8.932973785E0,9.183231539E0
2.188349667E0,-1.592238922E0,1.424587555E0,8.917256470E0,9.169631259E0
2.198297667E0,-1.678908691E0,1.328786774E0,8.945847015E0,9.198510070E0
2.208244667E0,-1.745370483E0,1.266366577E0,9.087003479E0,9.339359435E0
2.218192667E0,-1.767973480E0,1.223256226E0,9.298214264E0,9.543525267E0
2.228140667E0,-1.711840210E0,1.133742371E0,9.494456177E0,9.713931581E0
2.238087667E0,-1.637744293E0,1.050665131E0,9.661359100E0,9.855352011E0
2.248035667E0,-1.568588104E0,1.014889526E0,9.777816925E0,9.954706084E0
2.257983667E0,-1.535357208E0,9.806108093E-1,9.808503113E0,9.976254439E0
2.267931667E0,-1.590742035E0,9.406439209E-1,9.761351166E0,9.934749508E0
2.277878667E0,-1.655108185E0,8.954379272E-1,9.687704315E0,9.868779412E0
2.287826667E0,-1.712289276E0,8.541238403E-1,9.639354858E0,9.827442403E0
2.297774667E0,-1.820514221E0,7.934999084E-1,9.683812408E0,9.885349609E0
2.307722667E0,-1.910626831E0,6.267466736E-1,9.807006226E0,1.001102779E1
2.317669667E0,-1.948797455E0,3.248245239E-1,9.980345764E0,1.017401711E1
2.327617667E0,-1.954335938E0,-3.847000122E-2,1.028526169E1,1.046936086E1
2.337565667E0,-1.904639282E0,-4.583468628E-1,1.062864761E1,1.080767703E1
2.347512667E0,-1.888921967E0,-8.958869934E-1,1.081830322E1,1.101845381E1
2.357460667E0,-1.888323212E0,-1.287772064E0,1.083102676E1,1.106956468E1
2.367408667E0,-1.888323212E0,-1.544488220E0,1.064167053E1,1.091770856E1
2.377356667E0,-1.898651733E0,-1.629212036E0,1.022538620E1,1.052700020E1
2.387303667E0,-1.914668427E0,-1.588047638E0,9.585616608E0,9.903125579E0
2.397251667E0,-1.952988739E0,-1.437760162E0,8.890761566E0,9.215582484E0
2.407199667E0,-2.066153412E0,-1.251846771E0,8.263266449E0,8.609162716E0
2.417146667E0,-2.167193298E0,-1.119971008E0,7.717351685E0,8.093737015E0
2.427094667E0,-2.238295441E0,-1.024619293E0,7.216642914E0,7.624942368E0
2.437042667E0,-2.262694702E0,-9.114546204E-1,6.836732941E0,7.258887941E0
2.446990667E0,-2.320324860E0,-7.756869507E-1,6.667734375E0,7.102413632E0
2.456937667E0,-2.435285797E0,-5.920188904E-1,6.738237762E0,7.189224675E0
2.466885667E0,-2.523302765E0,-3.610491943E-1,7.020101624E0,7.468550071E0
2.476833667E0,-2.419568481E0,6.152206421E-2,7.460036774E0,7.842846758E0
2.486780667E0,-2.244881744E0,1.197509766E-3,7.999664612E0,8.308677956E0
2.496728667E0,-2.108814697E0,-1.477427673E-1,8.621621246E0,8.877008520E0
2.506676667E0,-2.045945435E0,-1.435514832E-1,9.226812744E0,9.452014239E0
2.516624917E0,-1.995500336E0,-9.984237671E-2,9.752519531E0,9.955080477E0
2.526571917E0,-1.970202942E0,-5.538482666E-3,1.006671616E1,1.025770464E1
2.536519917E0,-1.939816132E0,1.609153748E-1,1.025292892E1,1.043605921E1
2.546467917E0,-1.867815857E0,4.456233215E-1,1.045890060E1,1.063371610E1
2.556414917E0,-1.828597412E0,6.839277649E-1,1.066696793E1,1.084415651E1
2.566362917E0,-1.829645233E0,7.896080017E-1,1.084898941E1,1.103048746E1
2.576310917E0,-1.824555817E0,7.759863281E-1,1.087428680E1,1.105356378E1
2.586258917E0,-1.814826050E0,7.831713867E-1,1.088596252E1,1.106395639E1
2.596205917E0,-1.788630524E0,8.035290527E-1,1.092817474E1,1.110269613E1
2.606153917E0,-1.799707489E0,8.584648132E-1,1.097667389E1,1.115631115E1
2.616101917E0,-1.759141846E0,9.035211182E-1,1.100676132E1,1.118301056E1
2.626049917E0,-1.664987640E0,9.180409241E-1,1.100736008E1,1.117036073E1
2.635996917E0,-1.540746002E0,9.376501465E-1,1.112696136E1,1.127219390E1
2.645944917E0,-1.471739502E0,8.770262146E-1,1.111812973E1,1.124935557E1
2.655892917E0,-1.483564911E0,7.502398682E-1,1.098969681E1,1.111473169E1
2.665839917E0,-1.458866272E0,6.673123169E-1,1.080408279E1,1.092253641E1
2.675787917E0,-1.384321289E0,6.526428223E-1,1.061831909E1,1.072804681E1
2.685735917E0,-1.274898834E0,6.367758179E-1,1.040980270E1,1.050689501E1
2.695683917E0,-1.209335175E0,5.911207581E-1,1.017838394E1,1.026700614E1
2.705630917E0,-1.168021088E0,5.528004456E-1,9.977651367E0,1.006098347E1
2.715578917E0,-1.059496765E0,5.355862427E-1,9.810598755E0,9.882167472E0
2.725526917E0,-9.898915100E-1,5.703140259E-1,9.675579529E0,9.742791310E0
2.735473917E0,-9.782157898E-1,5.310955811E-1,9.555678864E0,9.620289351E0
2.745421917E0,-1.012045441E0,5.065466309E-1,9.398206329E0,9.466103088E0
2.755369917E0,-1.068927155E0,5.053491211E-1,9.264085236E0,9.339232209E0
2.765317917E0,-1.111289062E0,5.252577209E-1,9.169481964E0,9.251500340E0
2.775264917E0,-1.153351593E0,5.553451538E-1,9.094487915E0,9.184135157E0
2.785212917E0,-1.181193695E0,5.800437927E-1,9.123976593E0,9.218384794E0
2.795160917E0,-1.214723969E0,5.221142578E-1,9.165739746E0,9.260612437E0
2.805107917E0,-1.268761597E0,4.544549561E-1,9.139095154E0,9.237929721E0
2.815055917E0,-1.366508331E0,4.559518433E-1,9.141939240E0,9.254744198E0
2.825003917E0,-1.478924561E0,5.176235962E-1,9.191336517E0,9.323937957E0
2.834951917E0,-1.554966431E0,6.292913818E-1,9.268575897E0,9.419152160E0
2.844898917E0,-1.584754486E0,7.544311523E-1,9.399553528E0,9.562019644E0
2.854846917E0,-1.487606506E0,8.976832581E-1,9.516610107E0,9.673917319E0
2.864794917E0,-1.376986542E0,1.015488281E0,9.493707733E0,9.646646822E0
2.874742917E0,-1.307530975E0,1.127305756E0,9.384734344E0,9.542205942E0
2.884689917E0,-1.327589264E0,1.264869690E0,9.201814728E0,9.382738559E0
2.894637917E0,-1.453178101E0,1.359772339E0,8.992549896E0,9.210139035E0
2.904585917E0,-1.619033203E0,1.381776581E0,8.819360046E0,9.072578832E0
2.914532917E0,-1.819167023E0,1.367406464E0,8.752449188E0,9.043480297E0
2.924480917E0,-1.985620880E0,1.290616150E0,8.784632263E0,9.098249520E0
2.934428917E0,-2.151176605E0,1.191971283E0,8.841513977E0,9.177185066E0
2.944376917E0,-2.293231201E0,1.115031281E0,8.937464447E0,9.294109685E0
2.954323917E0,-2.326162720E0,1.038540344E0,9.059011688E0,9.410382129E0
2.964271917E0,-2.323917389E0,9.868977356E-1,9.187893677E0,9.528480959E0
2.974219917E0,-2.384541321E0,9.033714294E-1,9.416917419E0,9.756046891E0
2.984166917E0,-2.463876343E0,7.430548096E-1,9.502689056E0,9.844994484E0
2.994114917E0,-2.636317749E0,5.481600952E-1,9.403146057E0,9.781094342E0
3.004062917E0,-2.843486938E0,3.640429688E-1,9.282047882E0,9.714646578E0
3.014010917E0,-2.985092468E0,2.499801636E-1,9.284143524E0,9.755438899E0
3.023957917E0,-3.036435699E0,2.115101624E-1,9.354197845E0,9.836955608E0
3.033905917E0,-3.027604065E0,1.609153748E-1,9.379046173E0,9.856915707E0
3.043853917E0,-2.942880249E0,1.745370483E-1,9.409133606E0,9.860162400E0
3.053800917E0,-2.845881958E0,2.008822632E-1,9.467212830E0,9.887745778E0
3.063748917E0,-2.808160400E0,2.148033142E-1,9.486073608E0,9.895327069E0
3.073696917E0,-2.705923004E0,2.490820312E-1,9.415719910E0,9.799991968E0
3.083644917E0,-2.504741364E0,3.640429688E-1,9.287436676E0,9.626148586E0
3.093591917E0,-2.315385132E0,5.554948425E-1,9.200766907E0,9.503877866E0
3.103539917E0,-2.105371857E0,8.117619324E-1,9.189540253E0,9.462515424E0
3.113487917E0,-1.894161072E0,1.084943848E0,9.139693909E0,9.396752315E0
3.123434917E0,-1.689985657E0,1.330583038E0,9.185049591E0,9.433537975E0
3.133382917E0,-1.482068024E0,1.536854095E0,9.199719086E0,9.444219258E0
3.143330917E0,-1.359173584E0,1.684297485E0,9.153315582E0,9.405710872E0
3.153278917E0,-1.236279144E0,1.819915466E0,9.167386322E0,9.427695922E0
3.163225917E0,-1.116977234E0,1.899400177E0,9.199419708E0,9.459634356E0
3.173173917E0,-9.886940002E-1,1.895358582E0,9.271270294E0,9.514533769E0
3.183121917E0,-7.536827087E-1,1.780098267E0,9.470505981E0,9.665778345E0
3.193068917E0,-4.016148376E-1,1.652862854E0,9.832602997E0,9.978643785E0
3.203016917E0,-1.122665405E-2,1.529519348E0,1.026056305E1,1.037394378E1
3.212964917E0,2.550695801E-1,1.390757904E0,1.067026108E1,1.076353750E1
3.222912917E0,3.231779480E-1,1.234333191E0,1.100361786E1,1.107734753E1
3.232859917E0,2.005828857E-1,9.674382019E-1,1.114612152E1,1.118982552E1
3.242807917E0,-3.323089600E-2,6.265969849E-1,1.118923187E1,1.120681212E1
3.252755917E0,-2.914439392E-1,2.589614868E-1,1.123862915E1,1.124538954E1
3.262703917E0,-5.075944519E-1,-9.610015869E-2,1.133877090E1,1.135053360E1
3.272650917E0,-5.878276062E-1,-3.537144470E-1,1.146450943E1,1.148501770E1
3.282598917E0,-6.804849243E-1,-5.465135193E-1,1.151794830E1,1.155096835E1
3.292546917E0,-7.168592834E-1,-6.301895142E-1,1.142424316E1,1.146404632E1
3.302493917E0,-6.291416931E-1,-6.632707214E-1,1.128697861E1,1.132394072E1
3.312441917E0,-4.490661621E-1,-7.017407227E-1,1.107921066E1,1.111049096E1
3.322389917E0,-2.350112915E-1,-7.692503357E-1,1.080797470E1,1.083786388E1
3.332337917E0,-4.101470947E-2,-7.988887024E-1,1.055455170E1,1.058482248E1
3.342284917E0,1.781295776E-2,-8.258326721E-1,1.030307465E1,1.033613390E1
3.352232917E0,2.799179077E-2,-8.478369141E-1,1.012404694E1,1.015952446E1
3.362180917E0,7.993377686E-2,-9.014254761E-1,9.911488953E0,9.952716742E0
3.372127917E0,1.022373962E-1,-9.304650879E-1,9.695787506E0,9.740868192E0
3.382075917E0,1.282832336E-1,-9.520202637E-1,9.514364777E0,9.562736861E0
3.392023917E0,1.889071655E-1,-8.580157471E-1,9.402846680E0,9.443802339E0
3.401971917E0,2.671943665E-1,-7.071295166E-1,9.403894501E0,9.434227937E0
3.411918917E0,2.600093079E-1,-5.522016907E-1,9.437275085E0,9.456991730E0
3.421866917E0,2.691403198E-1,-4.317022705E-1,9.479187927E0,9.492829247E0
3.431814917E0,3.362008667E-1,-2.772235107E-1,9.555080109E0,9.565011227E0
3.441761917E0,4.484674072E-1,-1.207987976E-1,9.660011902E0,9.671170834E0
3.451709917E0,5.504054260E-1,2.424957275E-2,9.805359650E0,9.820825425E0
3.461657917E0,5.701643372E-1,7.544311523E-2,9.850266266E0,9.867042340E0
3.471605917E0,4.740641785E-1,6.810836792E-2,9.726623383E0,9.738407366E0
3.481552917E0,3.029699707E-1,2.993774414E-2,9.535919952E0,9.540778606E0
3.491500917E0,1.023870850E-1,4.146377563E-2,9.429341583E0,9.429988603E0
3.501448917E0,-4.460723877E-2,8.741821289E-2,9.329199829E0,9.329716030E0
3.511396042E0,-6.271957397E-2,1.666035461E-1,9.241033173E0,9.242747675E0
3.521344042E0,-3.802093506E-2,2.501298523E-1,9.173822937E0,9.177311034E0
3.531292042E0,-4.520599365E-2,3.362008667E-1,9.216783600E0,9.223024153E0
3.541240042E0,-4.251159668E-2,4.339476013E-1,9.365274811E0,9.375419459E0
3.551187042E0,5.448669434E-2,5.514532471E-1,9.599986725E0,9.615966649E0
3.561135042E0,1.907034302E-1,6.500981140E-1,9.767937469E0,9.791404279E0
3.571083042E0,2.808160400E-1,6.959028625E-1,9.711205444E0,9.740156550E0
3.581030042E0,2.745291138E-1,7.337741089E-1,9.519603882E0,9.551787725E0
3.590978042E0,2.615061951E-1,8.354127502E-1,9.422605591E0,9.463181076E0
3.600926042E0,2.335144043E-1,9.047186279E-1,9.330097961E0,9.376767713E0
3.610874042E0,1.543290710E-1,9.086105347E-1,9.219328308E0,9.265279543E0
3.620821042E0,1.354682922E-1,9.404942322E-1,9.221873016E0,9.270697007E0
3.630769042E0,1.107696533E-1,9.404942322E-1,9.334289246E0,9.382204167E0
3.640717042E0,1.050814819E-1,9.184899902E-1,9.390871582E0,9.436267008E0
3.650664042E0,9.849517822E-2,8.716374207E-1,9.416468353E0,9.457236877E0
3.660612042E0,8.592132568E-2,8.786727905E-1,9.468709717E0,9.509779811E0
3.670560042E0,1.085243225E-1,9.214837646E-1,9.493857422E0,9.539090030E0
3.680508042E0,1.865121460E-1,1.027463379E0,9.555080109E0,9.611972933E0
3.690455042E0,3.267704773E-1,1.154998169E0,9.660910034E0,9.735192982E0
3.700403042E0,4.516108704E-1,1.253792725E0,9.653874664E0,9.745421726E0
3.710351042E0,5.298980713E-1,1.317709808E0,9.560917969E0,9.665831755E0
3.720299042E0,4.948709106E-1,1.337768097E0,9.395811310E0,9.503462046E0
3.730246042E0,3.122506714E-1,1.291663971E0,9.187444611E0,9.283050941E0
3.740194042E0,1.209484863E-1,1.238524475E0,9.003177795E0,9.088772295E0
3.750142042E0,-1.646575928E-2,1.260977783E0,8.890013123E0,8.979012719E0
3.760089042E0,-1.161584473E-1,1.356329498E0,8.985364838E0,9.087898754E0
3.770037042E0,-1.797761536E-1,1.457070007E0,9.176517334E0,9.293214883E0
3.779985042E0,-1.547781372E-1,1.504371643E0,9.408085785E0,9.528859766E0
3.789933042E0,-7.888595581E-2,1.501078491E0,9.505832520E0,9.623944696E0
3.799880042E0,-5.074447632E-2,1.457668762E0,9.399703217E0,9.512191849E0
3.809828042E0,-9.774673462E-2,1.449585571E0,9.252259827E0,9.365637440E0
3.819776042E0,-1.761836243E-1,1.520388336E0,9.206006012E0,9.332372049E0
3.829723042E0,-1.600172424E-1,1.603914642E0,9.214238892E0,9.354161964E0
3.839671042E0,-2.080673218E-2,1.661993866E0,9.259444885E0,9.407442592E0
3.849619042E0,1.398092651E-1,1.716929626E0,9.374106445E0,9.531068441E0
3.859567042E0,1.941462708E-1,1.776206360E0,9.577234039E0,9.742484983E0
3.869514042E0,1.254391479E-1,1.803749084E0,9.845176849E0,1.000983281E1
3.879462042E0,6.915618896E-2,1.756447449E0,1.014635056E1,1.029749095E1
3.889410042E0,6.152206421E-2,1.604663086E0,1.030517029E1,1.042953802E1
3.899357042E0,8.098159790E-2,1.470392303E0,1.033645523E1,1.044082939E1
3.909305042E0,1.257385254E-1,1.404828644E0,1.033840118E1,1.043416948E1
3.919253042E0,1.064286804E-1,1.392554169E0,1.026909531E1,1.036363125E1
3.929201042E0,1.407073975E-2,1.370849304E0,1.012015503E1,1.021258849E1
3.939148042E0,-2.664459229E-2,1.352138214E0,9.949958954E0,1.004144765E1
3.949096042E0,-1.107696533E-2,1.342109070E0,9.793833618E0,9.885370827E0
3.959044042E0,-8.517288208E-2,1.333427124E0,9.641450500E0,9.733593893E0
3.968991042E0,-1.622625732E-1,1.316362610E0,9.561666412E0,9.653217300E0
3.978939042E0,-2.547702026E-1,1.288520508E0,9.510173492E0,9.600447532E0
3.988887042E0,-3.608995056E-1,1.265917511E0,9.739197235E0,9.827754493E0
3.998835042E0,-4.872367859E-1,1.207089844E0,9.977052612E0,1.006161242E1
4.008782042E0,-6.599775696E-1,1.041085052E0,1.005818390E1,1.013343435E1
4.018730042E0,-9.005273438E-1,8.158035278E-1,1.004740631E1,1.012061552E1
4.028678042E0,-1.218166809E0,5.442681885E-1,9.882299652E0,9.971960923E0
4.038625042E0,-1.553319855E0,3.231779480E-1,9.704170074E0,9.833013953E0
4.048573042E0,-1.793719940E0,2.005828857E-1,9.498048706E0,9.668019132E0
4.058521042E0,-1.965412903E0,1.161584473E-1,9.321116638E0,9.526780991E0
4.068469042E0,-2.063908081E0,4.026626587E-2,9.184899902E0,9.414017429E0
4.078416042E0,-2.039209442E0,1.766326904E-2,9.219927063E0,9.442761364E0
4.088364042E0,-1.942061462E0,-1.826202393E-2,9.400451660E0,9.598980552E0
4.098312042E0,-1.880539398E0,-1.345701599E-1,9.677525482E0,9.859464337E0
4.108259042E0,-1.826501770E0,-3.013233948E-1,1.011566437E1,1.028365548E1
4.118207042E0,-1.741628265E0,-4.173321533E-1,1.058553726E1,1.073596918E1
4.128155042E0,-1.644629974E0,-4.691244507E-1,1.098355957E1,1.111591050E1
4.138103042E0,-1.529968414E0,-4.391867065E-1,1.126662094E1,1.137850762E1
4.148050042E0,-1.389710083E0,-3.504212952E-1,1.138846756E1,1.147829615E1
4.157998042E0,-1.326541443E0,-2.329156494E-1,1.110226273E1,1.118365770E1
4.167946042E0,-1.227447510E0,-6.735992432E-3,1.048794022E1,1.055952474E1
4.177894042E0,-1.112187195E0,3.382965088E-1,9.763746185E0,9.832707890E0
4.187841042E0,-1.040935364E0,7.297325134E-1,9.147627411E0,9.235536975E0
4.197789042E0,-9.590556335E-1,1.099313965E0,8.770411835E0,8.890916862E0
4.207737042E0,-8.551716614E-1,1.388213196E0,8.649163971E0,8.801505090E0
4.217684042E0,-7.484436035E-1,1.541644135E0,8.692124634E0,8.859450610E0
4.227632042E0,-7.162605286E-1,1.580114136E0,8.802145844E0,8.971486013E0
4.237580042E0,-7.518864441E-1,1.539398804E0,8.948092346E0,9.110622291E0
4.247528042E0,-8.240364075E-1,1.459165649E0,9.162745972E0,9.314725661E0
4.257475042E0,-8.812174988E-1,1.375789032E0,9.332792358E0,9.474721787E0
4.267423042E0,-9.386979675E-1,1.325942688E0,9.411977692E0,9.551157100E0
4.277371042E0,-9.810598755E-1,1.332828369E0,9.435478821E0,9.579518282E0
4.287318042E0,-1.002016296E0,1.399739227E0,9.435179443E0,9.590928927E0
4.297266042E0,-1.061293030E0,1.462309113E0,9.429042206E0,9.600600385E0
4.307214042E0,-1.160386963E0,1.470541992E0,9.395212555E0,9.580136252E0
4.317162042E0,-1.259031830E0,1.442250824E0,9.328002319E0,9.522440646E0
4.327109042E0,-1.371448059E0,1.427431641E0,9.274862823E0,9.483749852E0
4.337057042E0,-1.418001251E0,1.448388062E0,9.354646912E0,9.571727867E0
4.347005042E0,-1.365610199E0,1.519789581E0,9.458530884E0,9.676696651E0
4.356952042E0,-1.345701599E0,1.611249390E0,9.584718475E0,9.811924665E0
4.366900042E0,-1.302890625E0,1.709744568E0,9.738448792E0,9.972869965E0
4.376848042E0,-1.276994476E0,1.711840210E0,9.899663544E0,1.012741083E1
4.386796042E0,-1.315614166E0,1.625020752E0,1.001133133E1,1.022733045E1
4.396743042E0,-1.343605957E0,1.476379852E0,9.997410278E0,1.019476271E1
4.406691042E0,-1.382674713E0,1.384920044E0,9.795330505E0,9.988908479E0
4.416639042E0,-1.516346741E0,1.340013428E0,9.529034271E0,9.741531582E0
4.426586042E0,-1.564396820E0,1.375040588E0,9.289682007E0,9.520308074E0
4.436534042E0,-1.474433899E0,1.447789307E0,9.058712311E0,9.291410976E0
4.446482042E0,-1.366059265E0,1.509610748E0,8.921298065E0,9.150661271E0
4.456430042E0,-1.270557861E0,1.544937286E0,8.923244019E0,9.144694216E0
4.466377042E0,-1.225202179E0,1.552571411E0,9.078171844E0,9.291114164E0
4.476325042E0,-1.238075409E0,1.511706390E0,9.302854614E0,9.505850351E0
4.486273042E0,-1.243464203E0,1.410367126E0,9.498497772E0,9.682809437E0
4.496220042E0,-1.260828094E0,1.284628601E0,9.659413147E0,9.825691857E0
4.506168042E0,-1.257684631E0,1.232087860E0,9.822723541E0,9.979263946E0
4.516115792E0,-1.233584747E0,1.187330933E0,9.958640900E0,1.010475208E1
4.526063792E0,-1.224453735E0,1.115929413E0,1.003034180E1,1.016623539E1
4.536010792E0,-1.175056458E0,1.042132874E0,1.012674133E1,1.024781385E1
4.545958792E0,-1.110989685E0,9.720785522E-1,1.025098297E1,1.035673147E1
4.555906792E0,-1.128652954E0,9.186396790E-1,1.038719971E1,1.048864501E1
4.565853792E0,-1.120270386E0,8.927435303E-1,1.049347870E1,1.059080223E1
4.575801792E0,-1.061442719E0,9.518705750E-1,1.057984909E1,1.067548243E1
4.585749792E0,-9.410929871E-1,1.042282562E0,1.050515442E1,1.059859794E1
4.595697792E0,-7.640112305E-1,1.197958832E0,1.015069153E1,1.024965156E1
4.605644792E0,-6.209088135E-1,1.357377319E0,9.680219879E0,9.794623926E0
4.615592792E0,-5.418731689E-1,1.544488220E0,9.317673798E0,9.460344359E0
4.625540792E0,-3.852987671E-1,1.714684296E0,9.234746246E0,9.400485924E0
4.635487792E0,-2.020797729E-1,1.739981689E0,9.291627960E0,9.455301300E0
4.645435792E0,-1.115180969E-1,1.664388885E0,9.307494965E0,9.455796591E0
4.655383792E0,-1.070274353E-1,1.524280243E0,9.274114380E0,9.399153295E0
4.665331792E0,-1.863624573E-1,1.398541718E0,9.418264618E0,9.523358563E0
4.675278792E0,-2.353106689E-1,1.313069458E0,9.804461517E0,9.894796014E0
4.685226792E0,-2.148033142E-1,1.184337158E0,1.020053787E1,1.027130799E1
4.695174792E0,-2.083666992E-1,1.018482056E0,1.056188644E1,1.061292456E1
4.705122792E0,-2.597099304E-1,8.120613098E-1,1.085467758E1,1.088810903E1
4.715069792E0,-3.290158081E-1,5.989045715E-1,1.106409210E1,1.108517353E1
4.725017792E0,-3.999682617E-1,4.426295471E-1,1.116872452E1,1.118464585E1
4.734965792E0,-5.310955811E-1,3.597019958E-1,1.120539825E1,1.122374261E1
4.744912792E0,-7.439529419E-1,3.260220337E-1,1.111887817E1,1.114850699E1
4.754860792E0,-8.840615845E-1,3.257226562E-1,1.092128906E1,1.096185271E1
4.764808792E0,-8.506809998E-1,3.498225403E-1,1.053673874E1,1.057680941E1
4.774756792E0,-7.441026306E-1,5.408253479E-1,1.001806732E1,1.006021141E1
4.784703792E0,-6.535409546E-1,8.668473816E-1,9.522148590E0,9.583832946E0
4.794651792E0,-5.309458923E-1,1.198707275E0,9.037456512E0,9.132054691E0
4.804599792E0,-4.153862000E-1,1.424437866E0,8.718469849E0,8.843827533E0
4.814546792E0,-2.746788025E-1,1.554816742E0,8.661288757E0,8.804023312E0
4.824494792E0,-2.136058044E-1,1.562600555E0,8.732690277E0,8.873963456E0
4.834442792E0,-1.851649475E-1,1.467847595E0,8.942404175E0,9.063964643E0
4.844390792E0,-1.161584473E-1,1.326242065E0,9.204359436E0,9.300142119E0
4.854337792E0,-5.598358154E-2,1.197060699E0,9.455537109E0,9.531173616E0
4.864285792E0,-5.254074097E-2,1.166075134E0,9.569749603E0,9.640674210E0
4.874233792E0,-1.125659180E-1,1.204844513E0,9.519903259E0,9.596503501E0
4.884180792E0,-1.782792664E-1,1.278641052E0,9.519304504E0,9.606449119E0
4.894128792E0,-2.454895020E-1,1.320254517E0,9.533375244E0,9.627490879E0
4.904076792E0,-2.986289978E-1,1.318458252E0,9.528435516E0,9.623855508E0
4.914024792E0,-3.308120728E-1,1.260528717E0,9.534572754E0,9.623224349E0
4.923971792E0,-3.713777161E-1,1.224004669E0,9.556876373E0,9.642094941E0
4.933919792E0,-3.421884155E-1,1.284029846E0,9.579928436E0,9.671652103E0
4.943867792E0,-2.912942505E-1,1.393751678E0,9.611063690E0,9.715963222E0
4.953814792E0,-2.487826538E-1,1.492845612E0,9.569450226E0,9.688387815E0
4.963762792E0,-2.791694641E-1,1.529070282E0,9.530531158E0,9.656449434E0
4.973710792E0,-3.616479492E-1,1.496438141E0,9.527687073E0,9.651266099E0
4.983658792E0,-4.255650330E-1,1.417402496E0,9.517358551E0,9.631731372E0
4.993605792E0,-4.658312988E-1,1.413510590E0,9.448801117E0,9.565294221E0
5.003553792E0,-4.972659302E-1,1.478475494E0,9.391320648E0,9.519982495E0
5.013501792E0,-5.062472534E-1,1.593885498E0,9.360185394E0,9.508408273E0
5.023448792E0,-4.992118835E-1,1.651365967E0,9.301357727E0,9.459993532E0
5.033396792E0,-4.787045288E-1,1.727557526E0,9.226513367E0,9.399051119E0
5.043344792E0,-3.885919189E-1,1.865720215E0,9.130862274E0,9.327623570E0
5.053292792E0,-3.109034729E-1,2.030677185E0,9.065448303E0,9.295303316E0
5.063239792E0,-3.029699707E-1,2.166744232E0,9.016949158E0,9.278574432E0
5.073187792E0,-3.183879089E-1,2.297272797E0,8.946296082E0,9.242026117E0
5.083135792E0,-3.124003601E-1,2.386936340E0,8.898246002E0,9.218125677E0
5.093082792E0,-3.201841736E-1,2.491269379E0,8.874295807E0,9.222909904E0
5.103030792E0,-3.522175598E-1,2.583627319E0,8.881331177E0,9.256199588E0
5.112978792E0,-4.309538269E-1,2.612068176E0,8.939111023E0,9.322892643E0
5.122926792E0,-4.899311829E-1,2.596500549E0,9.042246552E0,9.420407123E0
5.132873792E0,-5.409750366E-1,2.538121948E0,9.186995544E0,9.546496957E0
5.142821792E0,-7.021897888E-1,2.390229492E0,9.420809326E0,9.744635236E0
5.152769792E0,-1.003513184E0,2.197879486E0,9.696086884E0,9.992587943E0
5.162716792E0,-1.346899109E0,1.932930450E0,9.950707397E0,1.022579753E1
5.172664792E0,-1.676513672E0,1.700763245E0,1.001312759E1,1.029397969E1
5.182612792E0,-1.910477142E0,1.518592072E0,9.727521515E0,1.002899395E1
5.192560792E0,-1.957030334E0,1.383123779E0,9.380992126E0,9.682252444E0
5.202507792E0,-1.985022125E0,1.295406189E0,9.223070526E0,9.522784255E0
5.212455792E0,-1.973196716E0,1.272952881E0,9.357041931E0,9.647183424E0
5.222403792E0,-1.792223053E0,1.287772064E0,9.800419922E0,1.004582754E1
5.232351792E0,-1.526675262E0,1.293460236E0,1.043809387E1,1.062815038E1
5.242298792E0,-1.304537201E0,1.199605408E0,1.105840393E1,1.119951642E1
5.252246792E0,-1.141675873E0,9.690847778E-1,1.160177399E1,1.169802157E1
5.262194792E0,-1.118623810E0,6.405180359E-1,1.196925980E1,1.203847011E1
5.272141792E0,-1.293011169E0,3.040177917E-1,1.212134354E1,1.219390314E1
5.282089792E0,-1.545536041E0,5.179229736E-2,1.206790466E1,1.216658075E1
5.292037792E0,-1.733844452E0,-7.604187012E-2,1.173230255E1,1.185997142E1
5.301985792E0,-1.761686554E0,-5.448669434E-2,1.107157654E1,1.121099083E1
5.311932792E0,-1.678309937E0,1.615141296E-1,1.016985168E1,1.030867083E1
5.321880792E0,-1.591640167E0,4.453239441E-1,9.284891968E0,9.430845704E0
5.331828792E0,-1.621278534E0,6.930587769E-1,8.568182373E0,8.747721059E0
5.341775792E0,-1.687590637E0,8.255332947E-1,8.126301270E0,8.340637847E0
5.351723792E0,-1.739382935E0,9.217831421E-1,8.048912201E0,8.286140523E0
5.361671792E0,-1.822460175E0,9.451345825E-1,8.230933685E0,8.483095532E0
5.371619792E0,-1.946701813E0,8.741821289E-1,8.609346771E0,8.869875657E0
5.381566792E0,-2.034868469E0,7.054829407E-1,8.902586975E0,9.159391394E0
5.391514792E0,-2.095043335E0,5.281018066E-1,9.146878967E0,9.398589944E0
5.401462792E0,-2.159708862E0,3.695814514E-1,9.394015045E0,9.646162527E0
5.411409792E0,-2.206561432E0,2.453398132E-1,9.584269409E0,9.838054944E0
5.421357792E0,-2.177821198E0,1.743873596E-1,9.639953613E0,9.884433306E0
5.431305792E0,-2.055375824E0,1.628613281E-1,9.572144623E0,9.791682505E0
5.441253792E0,-1.883383484E0,2.161505127E-1,9.390422516E0,9.579868967E0
5.451200792E0,-1.695823517E0,3.206332397E-1,9.171727295E0,9.332695465E0
5.461148792E0,-1.488055573E0,4.852908325E-1,9.078770599E0,9.212702762E0
5.471096792E0,-1.322499847E0,6.259982300E-1,9.173972626E0,9.289922140E0
5.481043792E0,-1.218466187E0,7.464976501E-1,9.421258392E0,9.529009827E0
5.490991792E0,-1.203048248E0,7.533833313E-1,9.736353149E0,9.839282707E0
5.500939792E0,-1.272054749E0,6.628216553E-1,1.006671616E1,1.016839368E1
5.510887792E0,-1.419498138E0,4.608915710E-1,1.035591476E1,1.046290431E1
5.520835208E0,-1.470092926E0,2.899470520E-1,1.051967422E1,1.062585471E1
5.530783208E0,-1.400487671E0,1.950444031E-1,1.055080948E1,1.064513920E1
5.540731208E0,-1.325343933E0,2.043251038E-1,1.042252625E1,1.050844130E1
5.550678208E0,-1.297801208E0,3.204835510E-1,1.018721558E1,1.027454908E1
5.560626208E0,-1.314566345E0,5.207670593E-1,9.851314087E0,9.952269703E0
5.570574208E0,-1.291214905E0,7.933502197E-1,9.481582947E0,9.601929789E0
5.580522208E0,-1.201551361E0,1.047371979E0,9.197623444E0,9.334719639E0
5.590469208E0,-1.137933655E0,1.273102570E0,9.046288147E0,9.206031305E0
5.600417208E0,-1.108145599E0,1.378184052E0,8.956774292E0,9.129686942E0
5.610365208E0,-1.050665131E0,1.465302887E0,8.970545654E0,9.149956235E0
5.620312208E0,-9.419911194E-1,1.567689972E0,9.088650055E0,9.270844564E0
5.630260208E0,-8.659492493E-1,1.675615540E0,9.247769165E0,9.438156074E0
5.640208208E0,-8.270301819E-1,1.680555267E0,9.441166992E0,9.625169043E0
5.650156208E0,-7.845185852E-1,1.595831451E0,9.546398163E0,9.710605816E0
5.660103208E0,-7.746391296E-1,1.486109619E0,9.582173767E0,9.727622612E0
5.670051208E0,-7.761360168E-1,1.431922302E0,9.563911743E0,9.701607930E0
5.679999208E0,-8.626560974E-1,1.438358917E0,9.555379486E0,9.701460150E0
5.689946208E0,-9.159452820E-1,1.540746002E0,9.603130188E0,9.768979650E0
5.699894208E0,-8.731343079E-1,1.602118378E0,9.721683655E0,9.891424564E0
5.709842208E0,-8.012837219E-1,1.604962463E0,9.820029144E0,9.982531368E0
5.719790208E0,-7.111711121E-1,1.590143280E0,9.874665527E0,1.002713016E1
5.729737208E0,-6.506968689E-1,1.581012268E0,9.894274750E0,1.004090031E1
5.739685208E0,-6.560856628E-1,1.510508881E0,9.898016968E0,1.003408319E1
5.749633208E0,-7.861651611E-1,1.416354675E0,9.813293152E0,9.946096657E0
5.759580208E0,-9.598040771E-1,1.343905334E0,9.635612640E0,9.776110493E0
5.769528208E0,-1.107397156E0,1.279688873E0,9.312734070E0,9.465249491E0
5.779476208E0,-1.142124939E0,1.221010895E0,8.880283356E0,9.036301758E0
5.789424208E0,-1.037941589E0,1.227597198E0,8.477321320E0,8.628400453E0
5.799371208E0,-8.440946960E-1,1.269959106E0,8.209977264E0,8.350390330E0
5.809319208E0,-5.810916138E-1,1.346599731E0,8.225844269E0,8.355567739E0
5.819267208E0,-2.544708252E-1,1.421444092E0,8.737330627E0,8.855857113E0
5.829214208E0,-2.993774414E-3,1.406475220E0,9.602381744E0,9.704839858E0
5.839162208E0,1.573228455E-1,1.235680389E0,1.055395294E1,1.062720938E1
5.849110208E0,2.406994629E-1,9.211843872E-1,1.135418884E1,1.139403884E1
5.859058208E0,1.995350647E-1,5.909710693E-1,1.190504333E1,1.192137231E1
5.869005208E0,1.146615601E-1,3.180885315E-1,1.206056992E1,1.206530871E1
5.878953208E0,9.445358276E-2,1.612147522E-1,1.182256485E1,1.182404124E1
5.888901208E0,1.788780212E-1,1.959425354E-1,1.122006775E1,1.122320414E1
5.898848208E0,3.061134338E-1,4.131408691E-1,1.038899597E1,1.040171275E1
5.908796208E0,3.382965088E-1,6.804849243E-1,9.689350891E0,9.719106181E0
5.918744208E0,2.520758057E-1,9.309141541E-1,9.230405273E0,9.280653257E0
5.928692208E0,1.431024170E-1,1.115180969E0,9.104217682E0,9.173379230E0
5.938639208E0,1.586700439E-1,1.190923462E0,9.287286987E0,9.364676954E0
5.948587209E0,2.227368164E-1,1.140628052E0,9.576635284E0,9.646895221E0
5.958535208E0,2.805166626E-1,1.044228516E0,9.858499146E0,9.917616054E0
5.968483208E0,2.752775574E-1,9.650431824E-1,9.999505920E0,1.004973655E1
5.978430209E0,2.097138977E-1,9.080117798E-1,9.939480743E0,9.983072811E0
5.988378208E0,1.827699280E-1,9.135502625E-1,9.680219879E0,9.724949143E0
5.998326208E0,2.456391907E-1,1.027762756E0,9.401948547E0,9.461145353E0
6.008273209E0,3.176394653E-1,1.241368561E0,9.182355194E0,9.271328796E0
6.018221208E0,3.561094666E-1,1.428030396E0,9.116791534E0,9.234823910E0
6.028169208E0,4.519102478E-1,1.539099426E0,9.117390289E0,9.257421650E0
6.038116209E0,5.131329346E-1,1.554966431E0,9.132658539E0,9.278290683E0
6.048064208E0,4.484674072E-1,1.559756470E0,9.201964417E0,9.343988034E0
6.058012208E0,3.917353821E-1,1.579814758E0,9.261091461E0,9.403036017E0
6.067960209E0,3.478765869E-1,1.533111877E0,9.300160217E0,9.432095749E0
6.077907208E0,2.345622253E-1,1.427431641E0,9.315129089E0,9.426781555E0
6.087855208E0,7.873626709E-2,1.293609924E0,9.378746796E0,9.467867632E0
6.097803209E0,-1.275347900E-1,1.201701050E0,9.491312714E0,9.567934342E0
6.107751208E0,-3.573069763E-1,1.099613342E0,9.619595947E0,9.688830887E0
6.117698208E0,-5.439688110E-1,1.010698242E0,9.685159607E0,9.752934411E0
6.127646209E0,-6.529421997E-1,9.624984741E-1,9.661059723E0,9.730817633E0
6.137594208E0,-6.884184265E-1,9.789642334E-1,9.492210846E0,9.567358969E0
6.147541208E0,-6.866221619E-1,1.073417816E0,9.241182861E0,9.328619216E0
6.157489209E0,-7.837701416E-1,1.155896301E0,8.883277130E0,8.992385916E0
6.167437208E0,-8.684939575E-1,1.234931946E0,8.516240387E0,8.649028211E0
6.177385208E0,-9.018745422E-1,1.364113312E0,8.280630341E0,8.440558136E0
6.187332209E0,-9.047186279E-1,1.513352966E0,8.206684113E0,8.393951222E0
6.197280208E0,-8.586145020E-1,1.622326355E0,8.305778046E0,8.506180730E0
6.207228208E0,-7.475454712E-1,1.708547058E0,8.519982605E0,8.721700572E0
6.217175208E0,-6.508465576E-1,1.765578461E0,8.776698761E0,8.976152276E0
6.227123208E0,-6.331832886E-1,1.822759552E0,8.973240051E0,9.178366438E0
6.237071208E0,-6.845265198E-1,1.822759552E0,9.088051300E0,9.294283478E0
6.247019209E0,-7.391629028E-1,1.774559784E0,9.118587799E0,9.319016454E0
6.256966208E0,-7.274871826E-1,1.676363983E0,9.190288696E0,9.370210250E0
6.266914208E0,-6.617738342E-1,1.570384369E0,9.332642670E0,9.486952665E0
6.276862208E0,-6.152206421E-1,1.468146973E0,9.588610382E0,9.719845731E0
6.286809208E0,-6.601272583E-1,1.376537476E0,1.003318588E1,1.014866702E1
6.296757208E0,-7.024891663E-1,1.303639069E0,1.065604065E1,1.075844636E1
6.306705208E0,-6.827302551E-1,1.272653503E0,1.133308273E1,1.142473334E1
6.316653208E0,-6.849755859E-1,1.172661438E0,1.187600372E1,1.195340081E1
6.326600208E0,-8.128097534E-1,9.931846619E-1,1.207688599E1,1.214488578E1
6.336548208E0,-9.901908875E-1,8.949888611E-1,1.195204559E1,1.202634096E1
6.346496208E0,-1.183139648E0,8.414002991E-1,1.146585663E1,1.155740637E1
6.356443208E0,-1.369352417E0,8.003855896E-1,1.085078568E1,1.096609743E1
6.366391208E0,-1.334924011E0,8.210426331E-1,1.033271301E1,1.045088950E1
6.376339208E0,-1.114731903E0,8.541238403E-1,9.946516113E0,1.004516488E1
6.386287208E0,-9.051676941E-1,8.978329468E-1,9.736053772E0,9.819173876E0
6.396234208E0,-8.243357849E-1,8.434959412E-1,9.698032837E0,9.769485953E0
6.406182208E0,-8.725355530E-1,6.331832886E-1,9.853559418E0,9.912359586E0
6.416130208E0,-9.157955933E-1,3.616479492E-1,1.010324020E1,1.015110503E1
6.426077208E0,-9.063652039E-1,9.999206543E-2,1.039663010E1,1.043654223E1
6.436025208E0,-9.211843872E-1,-1.465452576E-1,1.064062271E1,1.068142818E1
6.445973208E0,-9.511221313E-1,-2.847079468E-1,1.081740509E1,1.086287001E1
6.455921208E0,-9.548643494E-1,-3.303630066E-1,1.079674805E1,1.084392337E1
6.465868208E0,-9.337582397E-1,-3.146456909E-1,1.040052200E1,1.044709358E1
6.475816208E0,-8.416996765E-1,-1.228944397E-1,9.639654236E0,9.677111923E0
6.485764208E0,-7.996371460E-1,1.868115234E-1,8.758586426E0,8.796996890E0
6.495711208E0,-8.325686646E-1,4.743635559E-1,7.934849396E0,7.992498126E0
6.505659208E0,-8.096662903E-1,7.304809570E-1,7.247778168E0,7.329355381E0
6.515607334E0,-6.953041077E-1,9.717791748E-1,6.841223602E0,6.944792505E0
6.525555333E0,-5.926176453E-1,1.198856964E0,6.835535431E0,6.965127301E0
6.535502333E0,-6.553372192E-1,1.370100861E0,7.292984161E0,7.449447041E0
6.545450334E0,-8.250842285E-1,1.376537476E0,8.194259949E0,8.349941048E0
6.555398333E0,-9.614506531E-1,1.142274628E0,9.196575623E0,9.316983517E0
6.565345333E0,-9.868977356E-1,8.126600647E-1,9.999356232E0,1.008074941E1
6.575293334E0,-9.839039612E-1,5.372328186E-1,1.051308792E1,1.057268669E1
6.585241333E0,-1.001716919E0,3.983216858E-1,1.072804092E1,1.078206655E1
6.595189333E0,-9.448352051E-1,3.963757324E-1,1.067400330E1,1.072306736E1
6.605136333E0,-8.105644226E-1,5.049000549E-1,1.040890457E1,1.045261848E1
6.615084333E0,-5.706134033E-1,7.277865601E-1,9.970316620E0,1.001311572E1
6.625032333E0,-3.335064697E-1,1.038390656E0,9.540859680E0,9.602993552E0
6.634979333E0,-2.429447937E-1,1.290017395E0,9.249116364E0,9.341804995E0
6.644927333E0,-3.529660034E-1,1.420845337E0,9.038504333E0,9.156306409E0
6.654875333E0,-5.577401733E-1,1.434317322E0,8.925788727E0,9.057485560E0
6.664823333E0,-7.601193237E-1,1.405427399E0,8.934021606E0,9.075778183E0
6.674770333E0,-9.125024414E-1,1.360221405E0,9.030271454E0,9.177617638E0
6.684718333E0,-1.028211823E0,1.319506073E0,9.183552704E0,9.334664220E0
6.694666333E0,-1.120420074E0,1.317560120E0,9.348809052E0,9.507446371E0
6.704613333E0,-1.145118713E0,1.382225647E0,9.510622559E0,9.678521894E0
6.714561333E0,-1.171613617E0,1.458267517E0,9.624236298E0,9.804343269E0
6.724509333E0,-1.222807159E0,1.475332031E0,9.642348633E0,9.830907848E0
6.734457333E0,-1.319057007E0,1.462159424E0,9.604627075E0,9.804421595E0
6.744404333E0,-1.388063507E0,1.453926544E0,9.559870148E0,9.768917030E0
6.754352333E0,-1.414857788E0,1.450783081E0,9.461973724E0,9.676545916E0
6.764300333E0,-1.447938995E0,1.447340240E0,9.413773956E0,9.633818620E0
6.774248333E0,-1.472787323E0,1.453178101E0,9.500743103E0,9.723422679E0
6.784195333E0,-1.419947205E0,1.418150940E0,9.721833344E0,9.926804406E0
6.794143333E0,-1.368753662E0,1.373394012E0,1.001731888E1,1.020325317E1
6.804091333E0,-1.334474945E0,1.275347900E0,1.032747391E1,1.049114164E1
6.814038333E0,-1.228195953E0,1.187929688E0,1.052566177E1,1.066345151E1
6.823986333E0,-9.886940002E-1,1.147663422E0,1.048329987E1,1.059217745E1
6.833934333E0,-8.047265625E-1,1.240919495E0,1.030157776E1,1.040720762E1
6.843882333E0,-6.571334839E-1,1.382974091E0,1.008183472E1,1.019744247E1
6.853829333E0,-5.098397827E-1,1.511407013E0,9.957742767E0,1.008468784E1
6.863777333E0,-3.561094666E-1,1.568737793E0,9.886790314E0,1.001680463E1
6.873725333E0,-2.649490356E-1,1.558259583E0,9.855505371E0,9.981450648E0
6.883672333E0,-3.103047180E-1,1.502874756E0,9.826166382E0,9.945273617E0
6.893620333E0,-4.523593140E-1,1.441203003E0,9.793683929E0,9.909487371E0
6.903568333E0,-5.903723145E-1,1.350940704E0,9.767039337E0,9.877683821E0
6.913516333E0,-7.397616577E-1,1.229842529E0,9.802066498E0,9.906576986E0
6.923463333E0,-9.271719360E-1,1.115180969E0,9.856104126E0,9.962231925E0
6.933411333E0,-1.081051941E0,1.075064392E0,9.804910583E0,9.922736936E0
6.943359333E0,-1.092128906E0,1.106948090E0,9.594747620E0,9.719941435E0
6.953306333E0,-9.330097961E-1,1.164428558E0,9.330696716E0,9.449248772E0
6.963254333E0,-6.224057007E-1,1.292562103E0,9.222172394E0,9.333090019E0
6.973202333E0,-2.592608643E-1,1.455423431E0,9.334289246E0,9.450631158E0
6.983150333E0,-1.381626892E-1,1.509610748E0,9.714348907E0,9.831916814E0
6.993097333E0,-2.089654541E-1,1.363963623E0,1.027149033E1,1.036376268E1
7.003045333E0,-3.031196594E-1,1.010548553E0,1.078761703E1,1.083908535E1
7.012993333E0,-4.252656555E-1,6.140231323E-1,1.124835892E1,1.127312972E1
7.022941333E0,-5.492079163E-1,3.101550293E-1,1.163769928E1,1.165477885E1
7.032888333E0,-6.709048462E-1,1.074765015E-1,1.191207870E1,1.193144097E1
7.042836333E0,-7.367678833E-1,-2.769241333E-2,1.205128922E1,1.207382150E1
7.052784333E0,-6.158193970E-1,-7.170089722E-2,1.204829544E1,1.206423630E1
7.062731333E0,-4.207749939E-1,-7.080276489E-2,1.182121765E1,1.182891590E1
7.072679333E0,-2.781216431E-1,-9.310638428E-2,1.139655075E1,1.140032409E1
7.082627333E0,-2.498304749E-1,-4.281097412E-2,1.094404175E1,1.094697665E1
7.092575333E0,-2.145039368E-1,1.405577087E-1,1.049602341E1,1.049915596E1
7.102522333E0,-1.207987976E-1,3.849993896E-1,1.001537292E1,1.002349798E1
7.112470333E0,-6.526428223E-2,5.584886169E-1,9.478888550E0,9.495551437E0
7.122418333E0,-7.155120850E-2,6.762936401E-1,8.896000671E0,8.921957218E0
7.132365333E0,-1.356179810E-1,7.391629028E-1,8.421637115E0,8.455100575E0
7.142313333E0,-1.803749084E-1,8.189469910E-1,8.107141113E0,8.150395470E0
7.152261333E0,-1.971400452E-1,8.747808838E-1,7.939340057E0,7.989820169E0
7.162209333E0,-2.451901245E-1,8.783734131E-1,7.837252350E0,7.890131966E0
7.172156333E0,-1.300794983E-1,9.214837646E-1,7.775580597E0,7.831073146E0
7.182104333E0,4.864883423E-2,1.043480072E0,7.696994019E0,7.767556520E0
7.192052333E0,8.397537231E-2,1.177002411E0,7.690407715E0,7.780408560E0
7.201999333E0,5.837860107E-2,1.294208679E0,7.767198029E0,7.874499945E0
7.211947333E0,1.791773987E-1,1.390608215E0,7.879913635E0,8.003682568E0
7.221895333E0,3.908372498E-1,1.446142731E0,8.020471344E0,8.159169267E0
7.231843333E0,5.281018066E-1,1.534459076E0,8.211174774E0,8.369996855E0
7.241790333E0,5.593867493E-1,1.645378418E0,8.435857544E0,8.613006222E0
7.251738333E0,4.460723877E-1,1.649569702E0,8.628207550E0,8.795795945E0
7.261686333E0,2.245330811E-1,1.523831177E0,8.785829773E0,8.919825187E0
7.271633333E0,-4.161346436E-2,1.310973816E0,9.026379547E0,9.121179296E0
7.281581333E0,-2.272274780E-1,1.143771515E0,9.374256134E0,9.446508544E0
7.291529333E0,-3.929328918E-1,9.635462952E-1,9.686656494E0,9.742388401E0
7.301477333E0,-5.962101746E-1,8.111631775E-1,9.923164673E0,9.974098927E0
7.311424333E0,-8.836125183E-1,6.834786987E-1,1.008437943E1,1.014606439E1
7.321372333E0,-1.105151825E0,6.225553894E-1,1.017823425E1,1.025696779E1
7.331320333E0,-1.145717468E0,5.861810303E-1,1.017104919E1,1.025214702E1
7.341267333E0,-1.087937622E0,6.397695923E-1,1.003513184E1,1.011418728E1
7.351215333E0,-1.044228516E0,7.789801025E-1,9.918075256E0,1.000327146E1
7.361163333E0,-9.566606140E-1,9.542655945E-1,9.789193268E0,9.882010281E0
7.371111333E0,-8.011340332E-1,1.203946381E0,9.577533417E0,9.686095652E0
7.381058333E0,-6.062393188E-1,1.455573120E0,9.326954498E0,9.459296984E0
7.391006334E0,-4.366419983E-1,1.706601105E0,9.080866241E0,9.250150013E0
7.400954333E0,-2.752775574E-1,1.940115509E0,8.871451721E0,9.085289294E0
7.410901333E0,-1.086740112E-1,2.128124542E0,8.755592651E0,9.011166783E0
7.420849334E0,-2.544708252E-3,2.230062561E0,8.774453430E0,9.053409220E0
7.430797333E0,6.706054688E-2,2.219584351E0,8.858578491E0,9.132659234E0
7.440745333E0,4.415817261E-2,2.165397034E0,8.980724487E0,9.238198232E0
7.450692334E0,-7.229965210E-2,2.089055786E0,9.185798035E0,9.420629854E0
7.460640333E0,-1.881587219E-1,1.991159363E0,9.378447418E0,9.589337583E0
7.470588333E0,-3.016227722E-1,1.839824066E0,9.673633575E0,9.851655467E0
7.480536334E0,-3.414399719E-1,1.613644409E0,1.011910721E1,1.025264650E1
7.490483333E0,-4.061054993E-1,1.358574829E0,1.055604858E1,1.065085954E1
7.500431333E0,-5.801934814E-1,1.139879608E0,1.087443649E1,1.094939811E1
7.510379334E0,-8.888516235E-1,9.885443115E-1,1.105136856E1,1.113103877E1
7.520325708E0,-1.179996185E0,9.560618591E-1,1.104283630E1,1.114677886E1
7.530273709E0,-1.341210938E0,9.515711975E-1,1.091140961E1,1.103463611E1
7.540221708E0,-1.415606232E0,1.004111938E0,1.070947952E1,1.084919967E1
7.550169708E0,-1.432071991E0,1.154998169E0,1.038091278E1,1.054268472E1
7.560116709E0,-1.362766113E0,1.353485413E0,1.012269974E1,1.030330550E1
7.570064708E0,-1.201401672E0,1.579665070E0,9.846374359E0,1.004439126E1
7.580012708E0,-9.836045837E-1,1.821711731E0,9.409732361E0,9.634789811E0
7.589959709E0,-6.849755859E-1,2.056273956E0,8.910071411E0,9.169886951E0
7.599907708E0,-3.882925415E-1,2.135908356E0,8.594377899E0,8.864322144E0
7.609855708E0,-3.390449524E-1,1.992207184E0,8.815318451E0,9.043985865E0
7.619803709E0,-5.806425476E-1,1.683399353E0,9.730814667E0,9.892407858E0
7.629750708E0,-7.545808411E-1,1.205293579E0,1.091485245E1,1.100709448E1
7.639698708E0,-7.099736023E-1,6.484515381E-1,1.189217010E1,1.193097908E1
7.649646709E0,-6.869215393E-1,1.577719116E-1,1.266426453E1,1.268386176E1
7.659594708E0,-7.788304138E-1,-2.365081787E-1,1.307710602E1,1.310241255E1
7.669541708E0,-9.262738037E-1,-4.752616882E-1,1.292741730E1,1.296927040E1
7.679489709E0,-1.018332367E0,-5.310955811E-1,1.203227875E1,1.208696799E1
7.689437708E0,-9.909393311E-1,-2.667453003E-1,1.054796539E1,1.059776805E1
7.699384708E0,-9.690847778E-1,2.074685669E-1,9.040001221E0,9.094162445E0
7.709332709E0,-9.768685913E-1,6.491999817E-1,7.737260284E0,7.825658411E0
7.719280708E0,-9.077124023E-1,9.924362183E-1,6.757846985E0,6.890382233E0
7.729228708E0,-7.991880798E-1,1.224603424E0,6.240223389E0,6.409270089E0
7.739175708E0,-8.885522461E-1,1.365310822E0,6.409820709E0,6.613576964E0
7.749123708E0,-1.131946106E0,1.360371094E0,7.136260071E0,7.352422682E0
7.759071708E0,-1.315314789E0,1.148112488E0,8.281528473E0,8.463564800E0
7.769018708E0,-1.399739227E0,7.649093628E-1,9.409732361E0,9.543972933E0
7.778966708E0,-1.540446625E0,3.671864319E-1,1.024469604E1,1.036636864E1
7.788914708E0,-1.730102234E0,5.403762817E-2,1.077893509E1,1.091703327E1
7.798862708E0,-1.792672119E0,-1.320254517E-1,1.092503128E1,1.107192000E1
7.808809708E0,-1.589993591E0,-1.085243225E-1,1.069945038E1,1.081749026E1
7.818757708E0,-1.145717468E0,1.607656860E-1,1.018227585E1,1.024779272E1
7.828705708E0,-7.075785828E-1,6.245013428E-1,9.567803650E0,9.614236114E0
7.838652708E0,-4.095483398E-1,1.116228790E0,9.093889160E0,9.171287620E0
7.848600708E0,-1.995350647E-1,1.489552460E0,8.827293549E0,8.954311373E0
7.858548708E0,-3.233276367E-2,1.714235229E0,8.651858368E0,8.820107769E0
7.868496708E0,1.040336609E-1,1.853445740E0,8.524323578E0,8.724114658E0
7.878443708E0,1.540296936E-1,1.927691345E0,8.538843384E0,8.755087972E0
7.888391708E0,9.879455566E-2,1.969753876E0,8.680748291E0,8.901970658E0
7.898339708E0,-2.155517578E-2,1.951042786E0,9.003776550E0,9.212764229E0
7.908286708E0,-1.411564636E-1,1.825453949E0,9.367819519E0,9.545064159E0
7.918234708E0,-2.689906311E-1,1.640438690E0,9.653126221E0,9.795215204E0
7.928182708E0,-3.583547974E-1,1.472338257E0,9.820627899E0,9.936847107E0
7.938130708E0,-4.697232056E-1,1.388213196E0,9.826016693E0,9.934705825E0
7.948077708E0,-5.571414185E-1,1.397344208E0,9.776619415E0,9.891676531E0
7.958025708E0,-6.574328613E-1,1.459914093E0,9.702373810E0,9.833596731E0
7.967973708E0,-7.243437195E-1,1.501078491E0,9.618697815E0,9.762031454E0
7.977921708E0,-7.436535645E-1,1.524130554E0,9.598639526E0,9.747300925E0
7.987868708E0,-8.042774963E-1,1.537452850E0,9.572294312E0,9.728280524E0
7.997816708E0,-9.424401855E-1,1.512454834E0,9.517508240E0,9.682906393E0
8.007764708E0,-1.071621552E0,1.499282227E0,9.401499481E0,9.580418177E0
8.017711708E0,-1.192719727E0,1.525477753E0,9.395511932E0,9.592982184E0
8.027659708E0,-1.187330933E0,1.565145264E0,9.487869873E0,9.689123240E0
8.037607708E0,-1.069076843E0,1.581461334E0,9.588610382E0,9.776778319E0
8.047555708E0,-8.502319336E-1,1.563348999E0,9.827214203E0,9.987046281E0
8.057502708E0,-5.851332092E-1,1.454674988E0,1.015233810E1,1.027270311E1
8.067450708E0,-4.197271729E-1,1.259331207E0,1.053643936E1,1.061972883E1
8.077398708E0,-2.600093079E-1,1.088985443E0,1.093910202E1,1.099624696E1
8.087345708E0,-1.594184875E-1,9.677375793E-1,1.126482468E1,1.130744026E1
8.097293708E0,-1.474433899E-1,8.828640747E-1,1.126317810E1,1.129868884E1
8.107241708E0,-1.866618347E-1,8.701405334E-1,1.088521408E1,1.092153253E1
8.117189708E0,-2.844085693E-1,9.535171509E-1,1.029439270E1,1.034236937E1
8.127136708E0,-3.733236694E-1,1.145418091E0,9.689799957E0,9.764403534E0
8.137084708E0,-3.525169373E-1,1.346899109E0,9.095236359E0,9.201180893E0
8.147032708E0,-2.772235107E-1,1.537003784E0,8.580456848E0,8.721437567E0
8.156979708E0,-1.933978271E-1,1.742227020E0,8.344697113E0,8.526824005E0
8.166927708E0,-2.546205139E-1,1.829345856E0,8.620723114E0,8.816360069E0
8.176875708E0,-3.448828125E-1,1.726958771E0,9.435927887E0,9.598857528E0
8.186823708E0,-2.579136658E-1,1.297950897E0,1.041444305E1,1.049818175E1
8.196770708E0,-5.643264771E-2,7.417076111E-1,1.123443787E1,1.125903677E1
8.206718708E0,5.508544922E-2,3.329077148E-1,1.199560501E1,1.200035006E1
8.216666708E0,-1.002914429E-2,1.050814819E-1,1.254151978E1,1.254196400E1
8.226614708E0,-1.838177490E-1,1.451980591E-2,1.272803192E1,1.272936748E1
8.236561708E0,-3.306623840E-1,1.481918335E-2,1.246817230E1,1.247256500E1
8.246509708E0,-3.237767029E-1,1.050814819E-1,1.179083084E1,1.179574353E1
8.256457708E0,-2.513273621E-1,2.453398132E-1,1.090108109E1,1.090673764E1
8.266404708E0,-2.969824219E-1,3.782633972E-1,1.017643799E1,1.018779524E1
8.276352708E0,-4.284091187E-1,4.769082642E-1,9.595046997E0,9.616439192E0
8.286300708E0,-6.104306030E-1,5.574407959E-1,9.306896210E0,9.343536955E0
8.296248708E0,-8.381071472E-1,5.342390442E-1,9.141639862E0,9.195510552E0
8.306195708E0,-9.762698364E-1,4.791535950E-1,8.921298065E0,8.987338323E0
8.316143708E0,-1.014590149E0,4.809498596E-1,8.823401642E0,8.894555777E0
8.326091708E0,-1.009201355E0,5.819897461E-1,8.859177246E0,8.935447438E0
8.336038708E0,-9.042695618E-1,7.282356262E-1,8.907975769E0,8.983321372E0
8.345986708E0,-6.700067139E-1,9.460327148E-1,8.902886353E0,8.978043902E0
8.355934708E0,-4.326004028E-1,1.179247742E0,8.802145844E0,8.891318226E0
8.365882708E0,-2.625540161E-1,1.400337982E0,8.530909882E0,8.649063792E0
8.375829708E0,-1.715432739E-1,1.608255615E0,8.278684387E0,8.435195813E0
8.385777708E0,-1.110690308E-1,1.796564026E0,8.154891815E0,8.351181901E0
8.395725708E0,-9.954299927E-2,1.909279633E0,8.085735626E0,8.308692926E0
8.405672708E0,-1.426533508E-1,1.928439789E0,8.151448975E0,8.377669747E0
8.415620708E0,-1.603166199E-1,1.871558075E0,8.308322754E0,8.518019607E0
8.425568708E0,-1.854643250E-1,1.793270874E0,8.518336029E0,8.707023955E0
8.435516708E0,-2.835104370E-1,1.667083282E0,8.778495026E0,8.939883654E0
8.445463708E0,-4.299060059E-1,1.513951721E0,9.042695618E0,9.178628058E0
8.455411708E0,-5.878276062E-1,1.384171600E0,9.222621460E0,9.344421807E0
8.465359708E0,-7.439529419E-1,1.251547394E0,9.372908936E0,9.485318064E0
8.475307708E0,-8.723858643E-1,1.182091827E0,9.480086060E0,9.593249183E0
8.485254708E0,-9.503736877E-1,1.180744629E0,9.541009369E0,9.660653591E0
8.495202708E0,-9.538165283E-1,1.204994202E0,9.546398163E0,9.669306846E0
8.505150708E0,-8.795709229E-1,1.306632843E0,9.480684814E0,9.610635720E0
8.515097542E0,-7.479945374E-1,1.411564636E0,9.347761230E0,9.483282690E0
8.525045542E0,-6.402186584E-1,1.567091217E0,9.266180878E0,9.419541543E0
8.534993542E0,-5.501060486E-1,1.740580444E0,9.350605316E0,9.527122164E0
8.544941542E0,-4.378395081E-1,1.926044769E0,9.537267151E0,9.739651770E0
8.554888542E0,-3.025209045E-1,2.049537964E0,9.726773071E0,9.944960490E0
8.564836542E0,-1.927990723E-1,2.100432129E0,9.843230896E0,1.006668670E1
8.574784542E0,-1.234931946E-1,2.141446838E0,9.834399261E0,1.006560748E1
8.584731542E0,-5.239105225E-2,2.181413727E0,9.771529999E0,1.001219802E1
8.594679542E0,-4.340972900E-3,2.240540771E0,9.705517273E0,9.960778450E0
8.604627542E0,3.278182983E-2,2.288141785E0,9.704918518E0,9.971063680E0
8.614575542E0,9.669891357E-2,2.324516144E0,9.734257507E0,1.000842121E1
8.624522542E0,1.526824951E-1,2.273023224E0,9.782906342E0,1.004466042E1
8.634470542E0,1.678010559E-1,2.157762909E0,9.952803040E0,1.018540065E1
8.644418542E0,9.565109253E-2,2.008074188E0,1.020966888E1,1.040571236E1
8.654366542E0,-7.259902954E-2,1.839225311E0,1.064047302E1,1.079850390E1
8.664313542E0,-3.379971313E-1,1.654659119E0,1.107951004E1,1.120748329E1
8.674261542E0,-6.598278809E-1,1.464105377E0,1.123024658E1,1.134448834E1
8.684209542E0,-8.846603394E-1,1.340163116E0,1.095167587E1,1.106877886E1
8.694156542E0,-9.888436890E-1,1.374591522E0,1.047446823E1,1.061045703E1
8.704104542E0,-1.075663147E0,1.537602539E0,9.979896698E0,1.015478266E1
8.714052542E0,-1.067430267E0,1.738484802E0,9.514813843E0,9.731054375E0
8.724000542E0,-9.151968384E-1,1.934577026E0,9.067543945E0,9.316680027E0
8.733947542E0,-6.414161682E-1,2.143093414E0,8.733438721E0,9.015387733E0
8.743895542E0,-3.344046021E-1,2.227817230E0,8.624315643E0,8.913687024E0
8.753843542E0,-7.349716187E-2,2.155816956E0,8.935967560E0,9.192631006E0
8.763791542E0,2.739303589E-2,1.954335938E0,9.765542450E0,9.959216770E0
8.773738542E0,-1.610650635E-1,1.590143280E0,1.084494781E1,1.096208879E1
8.783686542E0,-4.800517273E-1,1.039139099E0,1.165177002E1,1.170786079E1
8.793634542E0,-8.634045410E-1,4.713697815E-1,1.214110245E1,1.218088771E1
8.803581542E0,-1.190324707E0,7.694000244E-2,1.210218338E1,1.216082379E1
8.813529542E0,-1.345402222E0,-7.304809570E-2,1.137334900E1,1.145288220E1
8.823477542E0,-1.279988251E0,1.739382935E-1,1.016715729E1,1.024888832E1
8.833425542E0,-1.126407623E0,6.899153137E-1,8.999285889E0,9.095709086E0
8.843372542E0,-9.651928711E-1,1.209784241E0,7.968529358E0,8.117427876E0
8.853320542E0,-7.217990112E-1,1.610051880E0,7.229815521E0,7.442008690E0
8.863268542E0,-5.734574890E-1,1.845512238E0,6.926995239E0,7.191525009E0
8.873216542E0,-6.068380737E-1,1.932331696E0,7.124284973E0,7.406591295E0
8.883163542E0,-7.447013855E-1,1.855092316E0,7.754324799E0,8.007839954E0
8.893111542E0,-8.563691711E-1,1.630110168E0,8.578959961E0,8.774347915E0
8.903059542E0,-8.768765259E-1,1.375489655E0,9.384135590E0,9.524856167E0
8.913006542E0,-8.310717773E-1,1.091679840E0,1.001342697E1,1.010698594E1
8.922954542E0,-7.629634094E-1,9.114546204E-1,1.027822632E1,1.034672890E1
8.932902542E0,-6.792874146E-1,8.897497559E-1,1.016910324E1,1.023053013E1
8.942850542E0,-6.173162842E-1,9.918374634E-1,9.821975098E0,9.891209014E0
8.952797542E0,-5.089416504E-1,1.190175018E0,9.419761505E0,9.508282968E0
8.962745542E0,-2.894979858E-1,1.429377594E0,9.148824921E0,9.264336286E0
8.972693542E0,-1.082249451E-1,1.608105927E0,9.024134216E0,9.166936002E0
8.982640542E0,3.876937866E-2,1.719624023E0,8.899443512E0,9.064143902E0
8.992588542E0,8.771759033E-2,1.816772003E0,8.775501251E0,8.962018584E0
9.002536542E0,3.772155762E-2,1.942061462E0,8.739725647E0,8.952978835E0
9.012484542E0,8.981323242E-3,2.042352905E0,8.819360046E0,9.052756358E0
9.022431542E0,-8.981323242E-4,2.063309326E0,9.150321808E0,9.380065851E0
9.032379542E0,6.286926270E-3,1.987716522E0,9.517957306E0,9.723300251E0
9.042327542E0,-3.502716064E-2,1.842668152E0,9.759554901E0,9.932047356E0
9.052275542E0,-1.160087585E-1,1.723515930E0,9.866133270E0,1.001621440E1
9.062222542E0,-2.002835083E-1,1.671873322E0,9.909243622E0,1.005128763E1
9.072170542E0,-2.393522644E-1,1.686842194E0,9.823771362E0,9.970416735E0
9.082118542E0,-3.086581421E-1,1.730551300E0,9.629325714E0,9.788462155E0
9.092065542E0,-3.459306335E-1,1.805844727E0,9.448052673E0,9.625302203E0
9.102013542E0,-3.823049927E-1,1.813778229E0,9.381441193E0,9.562812736E0
9.111961542E0,-4.568499756E-1,1.785636749E0,9.400601349E0,9.579588520E0
9.121909542E0,-5.278024292E-1,1.751358032E0,9.443562012E0,9.619079677E0
9.131856542E0,-5.767506409E-1,1.765877838E0,9.523944855E0,9.703426788E0
9.141804542E0,-5.813909912E-1,1.812880096E0,9.606273651E0,9.793112028E0
9.151752542E0,-6.203100586E-1,1.887275391E0,9.678423615E0,9.880206305E0
9.161700542E0,-6.108796692E-1,2.001637573E0,9.714049530E0,9.936925340E0
9.171647542E0,-5.287005615E-1,2.141746216E0,9.787846069E0,1.003337091E1
9.181595542E0,-4.183799744E-1,2.297123108E0,9.887089691E0,1.015905305E1
9.191543542E0,-2.624043274E-1,2.469863892E0,9.929900665E0,1.023581999E1
9.201490542E0,-9.370513916E-2,2.512674866E0,9.909393311E0,1.022342366E1
9.211438542E0,3.891906738E-3,2.488874359E0,9.903256073E0,1.021121891E1
9.221386542E0,-4.041595459E-2,2.465672607E0,9.983339539E0,1.028339648E1
9.231334542E0,-1.683998108E-1,2.427951050E0,1.007854156E1,1.036823538E1
9.241281542E0,-1.077758789E-1,2.312840424E0,9.951006775E0,1.021681860E1
9.251229542E0,5.882766724E-2,2.125579834E0,9.596543884E0,9.829303376E0
9.261177542E0,8.786727905E-2,1.969005432E0,9.165739746E0,9.375259364E0
9.271124542E0,-3.442840576E-2,1.905088348E0,8.730295258E0,8.935804509E0
9.281072542E0,-9.879455566E-2,1.942660217E0,8.399333496E0,8.621629328E0
9.291020542E0,-4.864883423E-2,2.089504852E0,8.360264740E0,8.617564839E0
9.300968542E0,-3.113525391E-2,2.282752991E0,8.619226227E0,8.916444996E0
9.310915542E0,6.556365967E-2,2.446063385E0,9.138346710E0,9.460280401E0
9.320863542E0,3.670367432E-1,2.537672882E0,9.766590271E0,1.009756333E1
9.330811542E0,8.548722839E-1,2.589465179E0,1.023481659E1,1.059186514E1
9.340759542E0,1.210832062E0,2.642005920E0,1.047821045E1,1.087378516E1
9.350706542E0,1.197060699E0,2.648592224E0,1.047925827E1,1.087487237E1
9.360654542E0,8.978329468E-1,2.580184479E0,1.022837997E1,1.058693595E1
9.370602542E0,4.764591980E-1,2.388433228E0,9.873168640E0,1.016912413E1
9.380549542E0,2.260299683E-2,2.086211700E0,9.557924194E0,9.782980377E0
9.390497542E0,-2.706372070E-1,1.897005157E0,9.351802826E0,9.546103350E0
9.400445542E0,-3.239263916E-1,1.875449982E0,9.225016479E0,9.419297744E0
9.410393542E0,-3.432362366E-1,1.901346130E0,9.284891968E0,9.483783373E0
9.420340542E0,-2.939886475E-1,1.913171539E0,9.451944580E0,9.648104011E0
9.430288542E0,-1.721420288E-1,1.903441772E0,9.668244781E0,9.855337671E0
9.440236542E0,-1.197509766E-2,1.976789246E0,1.002076172E1,1.021388783E1
9.450184542E0,1.312770081E-1,2.049537964E0,1.041129959E1,1.061192719E1
9.460131542E0,1.675016785E-1,2.004032593E0,1.063927551E1,1.082766766E1
9.470079542E0,1.086740112E-1,1.914518738E0,1.063957489E1,1.081100115E1
9.480027542E0,-2.155517578E-2,1.854643250E0,1.051248917E1,1.067485806E1
9.489975542E0,-2.040257263E-1,1.754501495E0,1.029948212E1,1.044984372E1
9.499922542E0,-3.070115662E-1,1.686542816E0,1.012150223E1,1.026564611E1
9.509870542E0,-2.787203979E-1,1.717378693E0,9.989776154E0,1.014015297E1
9.519819458E0,-2.041754150E-1,1.785786438E0,9.968969421E0,1.012971234E1
9.529766458E0,-1.770817566E-1,1.802102509E0,9.987231445E0,1.015006026E1
9.539714458E0,-2.826123047E-1,1.763183441E0,9.956694946E0,1.011555534E1
9.549662458E0,-4.537065125E-1,1.696272583E0,9.893825684E0,1.004843157E1
9.559610458E0,-6.029461670E-1,1.635199585E0,9.821825409E0,9.975253186E0
9.569557458E0,-7.140151978E-1,1.643432465E0,9.809251556E0,9.971564775E0
9.579505458E0,-8.193960571E-1,1.679208069E0,9.853409729E0,1.002899960E1
9.589453458E0,-8.640032959E-1,1.701960754E0,9.930349731E0,1.011212232E1
9.599401458E0,-8.419990540E-1,1.692829742E0,9.839638367E0,1.001963663E1
9.609348458E0,-8.331674194E-1,1.727557526E0,9.591155090E0,9.781046924E0
9.619296458E0,-8.443940735E-1,1.815873871E0,9.231303406E0,9.446023599E0
9.629244458E0,-8.898994446E-1,1.948348389E0,8.887618103E0,9.142086086E0
9.639191458E0,-9.777667236E-1,2.100132751E0,8.700357513E0,9.003488557E0
9.649139458E0,-1.014889526E0,2.202819214E0,8.650660858E0,8.984227653E0
9.659087458E0,-9.660910034E-1,2.248174896E0,8.676706696E0,9.015146215E0
9.669035458E0,-8.243357849E-1,2.314636688E0,8.663683777E0,9.005358908E0
9.678982458E0,-6.228547668E-1,2.457589417E0,8.607400818E0,8.973017477E0
9.688930458E0,-4.079017639E-1,2.640209656E0,8.655001831E0,9.057932853E0
9.698878458E0,-2.538720703E-1,2.809806976E0,8.685538330E0,9.132252863E0
9.708826458E0,-2.023791504E-1,2.865341492E0,8.664432220E0,9.128172045E0
9.718773458E0,-1.945953369E-1,2.852168884E0,8.599617004E0,9.062347781E0
9.728721458E0,-2.237846375E-1,2.789449310E0,8.448730774E0,8.900121275E0
9.738669458E0,-3.005749512E-1,2.737956390E0,8.317753143E0,8.761950003E0
9.748616458E0,-3.935316467E-1,2.722388763E0,8.397986298E0,8.836992791E0
9.758564458E0,-4.037104797E-1,2.674638062E0,8.692723389E0,9.103851428E0
9.768512458E0,-3.216810608E-1,2.599045258E0,8.991951141E0,9.365559262E0
9.778460458E0,-3.128494263E-1,2.502346344E0,9.228459320E0,9.566821489E0
9.788407458E0,-4.797523499E-1,2.377505951E0,9.366921387E0,9.675841727E0
9.798355458E0,-7.304809570E-1,2.260898438E0,9.457632751E0,9.751516879E0
9.808303458E0,-9.101074219E-1,2.190395050E0,9.585616608E0,9.874723882E0
9.818251458E0,-9.518705750E-1,2.191742249E0,9.806108093E0,1.009304452E1
9.828198458E0,-9.827064514E-1,2.222727814E0,9.942923584E0,1.023562213E1
9.838146458E0,-9.842033386E-1,2.331701202E0,1.004546036E1,1.035938031E1
9.848094458E0,-8.951385498E-1,2.487377472E0,9.983489227E0,1.032755425E1
9.858042458E0,-7.854167175E-1,2.584226074E0,9.723629608E0,1.009178263E1
9.867989458E0,-6.959028625E-1,2.707569580E0,9.371561737E0,9.779641262E0
9.877937458E0,-5.984555054E-1,2.890788574E0,8.954229584E0,9.428310295E0
9.887885458E0,-5.120851135E-1,3.171604614E0,8.590036926E0,9.171152675E0
9.897832458E0,-3.321592712E-1,3.421884155E0,8.229885864E0,8.919116677E0
9.907780458E0,-9.819580078E-2,3.534899139E0,7.935747528E0,8.687994197E0
9.917728458E0,1.564247131E-1,3.539988556E0,7.850574646E0,8.613217165E0
9.927676458E0,2.537223816E-1,3.445534973E0,8.277037811E0,8.969138266E0
9.937623458E0,4.236190796E-2,3.117866364E0,9.374705200E0,9.879675237E0
9.947571458E0,-2.514770508E-1,2.490970001E0,1.067100952E1,1.096077627E1
9.957519458E0,-4.872367859E-1,1.743574219E0,1.194875244E1,1.208512042E1
9.967467458E0,-6.771917725E-1,1.062490540E0,1.297651520E1,1.303753894E1
9.977414458E0,-6.993457031E-1,6.144721985E-1,1.339010513E1,1.342242810E1
9.987362458E0,-5.360353088E-1,4.596940613E-1,1.295421158E1,1.297344403E1
9.997310458E0,-2.996768188E-1,7.554789734E-1,1.167931274E1,1.170755742E1
1.000725746E1,-8.262817383E-2,1.385668488E0,1.024125320E1,1.033490067E1
1.001720546E1,-1.586700439E-2,2.045646057E0,9.202563171E0,9.427199397E0
1.002715346E1,8.382568359E-2,2.480042725E0,8.677155762E0,9.025002536E0
1.003710146E1,1.037342834E-1,2.568658447E0,8.611292725E0,8.986830888E0
1.004704846E1,-5.313949585E-2,2.416425018E0,8.890162811E0,9.212867550E0
1.005699646E1,-2.565664673E-1,2.186054077E0,9.365274811E0,9.620448589E0
1.006694446E1,-3.823049927E-1,2.026336212E0,9.739646301E0,9.955546476E0
1.007689246E1,-4.267625427E-1,1.944007416E0,9.873168640E0,1.007177989E1
1.008683946E1,-3.185375977E-1,1.963916016E0,9.835297394E0,1.003451579E1
1.009678746E1,-1.228944397E-1,2.068249054E0,9.661658478E0,9.881315790E0
1.010673546E1,9.056167603E-2,2.246528320E0,9.422755280E0,9.687280731E0
1.011668246E1,3.097059631E-1,2.455194397E0,9.277706909E0,9.602069715E0
1.012663046E1,4.297563171E-1,2.581681366E0,9.162745972E0,9.529201588E0
1.013657846E1,4.391867065E-1,2.609074402E0,9.003028107E0,9.383744950E0
1.014652646E1,4.522096252E-1,2.595153351E0,8.818461914E0,9.203509384E0
1.015647346E1,4.092489624E-1,2.617456970E0,8.711434479E0,9.105364154E0
1.016642146E1,3.115022278E-1,2.632276154E0,8.650211792E0,9.047213683E0
1.017636946E1,1.425036621E-1,2.606829071E0,8.618328094E0,9.005078803E0
1.018631746E1,-5.897735596E-2,2.529140625E0,8.687484283E0,9.048337627E0
1.019626446E1,-2.963836670E-1,2.391427002E0,8.878487091E0,9.199690180E0
1.020621246E1,-5.084925842E-1,2.217039642E0,9.144783325E0,9.423422497E0
1.021616046E1,-6.021977234E-1,2.072590027E0,9.345515900E0,9.591503477E0
1.022610846E1,-5.920188904E-1,2.041005707E0,9.427545319E0,9.664098582E0
1.023605546E1,-5.421725464E-1,2.166145477E0,9.466763763E0,9.726548897E0
1.024600346E1,-5.007087708E-1,2.330503693E0,9.465865631E0,9.761381505E0
1.025595146E1,-4.607418823E-1,2.428250427E0,9.393116913E0,9.712843485E0
1.026589846E1,-3.873944092E-1,2.500550079E0,9.236692200E0,9.577019783E0
1.027584646E1,-3.879931641E-1,2.524949341E0,9.039402466E0,9.393439456E0
1.028579446E1,-4.430786133E-1,2.549947357E0,8.935518494E0,9.302797479E0
1.029574246E1,-4.334985352E-1,2.572400665E0,8.946445770E0,9.319015940E0
1.030568946E1,-3.478765869E-1,2.593357086E0,9.106013947E0,9.474492551E0
1.031563746E1,-3.031196594E-1,2.561323700E0,9.334438934E0,9.684214519E0
1.032558546E1,-3.016227722E-1,2.454595642E0,9.522897034E0,9.838779598E0
1.033553346E1,-3.423381042E-1,2.282603302E0,9.665700073E0,9.937466031E0
1.034548046E1,-4.150868225E-1,2.114802246E0,9.847721558E0,1.008078893E1
1.035542846E1,-4.360432434E-1,2.018552399E0,1.001133133E1,1.022210558E1
1.036537646E1,-4.213737488E-1,1.991907806E0,1.021311172E1,1.041407239E1
1.037532446E1,-3.418890381E-1,1.985770569E0,1.045695465E1,1.064932268E1
1.038527146E1,-1.914518738E-1,1.990261230E0,1.075842773E1,1.094264872E1
1.039521946E1,-8.427474976E-2,1.961670685E0,1.090557175E1,1.108091825E1
1.040516746E1,-5.538482666E-2,1.960323486E0,1.079360458E1,1.097031611E1
1.041511446E1,3.457809448E-2,1.990710297E0,1.047821045E1,1.066569348E1
1.042506246E1,-5.807922363E-2,1.934127960E0,9.796378326E0,9.985652331E0
1.043501046E1,-2.912942505E-1,1.835183716E0,8.882378998E0,9.074657474E0
1.044495846E1,-4.537065125E-1,1.916614380E0,8.157436523E0,8.391843118E0
1.045490546E1,-4.809498596E-1,2.168390808E0,7.918383636E0,8.223991177E0
1.046485346E1,-5.322930908E-1,2.352058868E0,8.188272400E0,8.536001508E0
1.047480146E1,-7.189549255E-1,2.265838165E0,9.041348419E0,9.348630917E0
1.048474946E1,-8.999285889E-1,1.918560333E0,1.019335281E1,1.041130092E1
1.049469646E1,-1.052760773E0,1.492396545E0,1.123548569E1,1.138295618E1
1.050464446E1,-1.215472412E0,1.107546844E0,1.188573349E1,1.199894553E1
1.051459246E1,-1.271455994E0,9.349557495E-1,1.205233704E1,1.215522812E1
1.052453979E1,-1.145867157E0,1.026714935E0,1.186133423E1,1.196070252E1
1.053448679E1,-8.866062927E-1,1.295555878E0,1.135643417E1,1.146442903E1
1.054443479E1,-6.484515381E-1,1.552870789E0,1.052416489E1,1.065785830E1
1.055438279E1,-4.797523499E-1,1.841770020E0,9.609417114E0,9.796079644E0
1.056432979E1,-3.484753418E-1,2.196083221E0,8.843908997E0,9.119152533E0
1.057427779E1,-2.239343262E-1,2.495610352E0,8.323291626E0,8.692260989E0
1.058422579E1,-1.784289551E-1,2.684966583E0,8.066126404E0,8.503133399E0
1.059417379E1,-2.046244812E-1,2.735112305E0,8.058192902E0,8.512178531E0
1.060412079E1,-1.613644409E-1,2.707419891E0,8.138276367E0,8.578327528E0
1.061406879E1,-4.370910645E-2,2.696941681E0,8.200247498E0,8.632465693E0
1.062401679E1,2.574645996E-2,2.764750671E0,8.424331512E0,8.866446334E0
1.063396479E1,1.139131165E-1,2.869083710E0,8.768465881E0,9.226625138E0
1.064391179E1,1.685494995E-1,2.895129547E0,9.116492157E0,9.566640647E0
1.065385979E1,1.435514832E-1,2.795736237E0,9.298064575E0,9.710342578E0
1.066380779E1,4.864883423E-2,2.675386505E0,9.239985352E0,9.619635594E0
1.067375579E1,-1.137634277E-1,2.640658722E0,9.082063751E0,9.458853133E0
1.068370279E1,-2.912942505E-1,2.665956116E0,9.039701843E0,9.429124231E0
1.069365079E1,-3.742218018E-1,2.668949890E0,9.086554413E0,9.477806000E0
1.070359879E1,-3.378474426E-1,2.606829071E0,9.078471222E0,9.451367014E0
1.071354579E1,-2.743794250E-1,2.556833038E0,9.016949158E0,9.376462626E0
1.072349379E1,-2.947370911E-1,2.582579498E0,9.055568848E0,9.421248005E0
1.073344179E1,-3.829037476E-1,2.559826813E0,9.070837097E0,9.432890026E0
1.074338979E1,-4.643344116E-1,2.460583191E0,9.011260986E0,9.352694834E0
1.075333679E1,-5.864804077E-1,2.393223267E0,8.934021606E0,9.267589705E0
1.076328479E1,-7.050338745E-1,2.395468597E0,8.994944916E0,9.335115243E0
1.077323279E1,-6.897656250E-1,2.499502258E0,9.190737762E0,9.549499923E0
1.078318079E1,-5.486091614E-1,2.569706268E0,9.401948547E0,9.762223046E0
1.079312779E1,-4.328997803E-1,2.621348877E0,9.440568237E0,9.807303442E0
1.080307579E1,-4.191284180E-1,2.636617126E0,9.235045624E0,9.613193339E0
1.081302379E1,-4.790039062E-1,2.687810669E0,8.922645264E0,9.330989735E0
1.082297179E1,-5.581892395E-1,2.774630127E0,8.724008331E0,9.171612123E0
1.083291879E1,-5.780978394E-1,2.871478729E0,8.747060394E0,9.224459483E0
1.084286679E1,-5.601351929E-1,2.940934296E0,8.898246002E0,9.388377276E0
1.085281479E1,-5.713618469E-1,2.969674530E0,9.007668457E0,9.501763637E0
1.086276179E1,-5.372328186E-1,2.986589355E0,9.078920288E0,9.572623918E0
1.087270979E1,-4.568499756E-1,3.051703949E0,8.990454254E0,9.505255209E0
1.088265779E1,-3.715274048E-1,3.116818542E0,8.786129150E0,9.329986918E0
1.089260579E1,-3.029699707E-1,3.246898041E0,8.502319336E0,9.106238070E0
1.090255279E1,-1.802252197E-1,3.392994232E0,8.305328979E0,8.973482069E0
1.091250079E1,-3.008743286E-2,3.511398010E0,8.283624115E0,8.997180098E0
1.092244879E1,8.801696777E-2,3.532504120E0,8.411907349E0,9.123952958E0
1.093239679E1,1.193019104E-1,3.463198242E0,8.704997864E0,9.369362989E0
1.094234379E1,-4.505630493E-2,3.335962830E0,9.137598267E0,9.727609169E0
1.095229179E1,-3.546125793E-1,3.166515198E0,9.679621124E0,1.019056592E1
1.096223979E1,-6.069877625E-1,2.964136047E0,1.018122803E1,1.062129657E1
1.097218779E1,-7.502398682E-1,2.737956390E0,1.048075516E1,1.085842962E1
1.098213479E1,-8.083190918E-1,2.619552612E0,1.052162018E1,1.087289873E1
1.099208279E1,-8.246351624E-1,2.615810394E0,1.023391846E1,1.059507311E1
1.100203079E1,-8.396040344E-1,2.674787750E0,9.838889923E0,1.023050240E1
1.101197779E1,-7.973918152E-1,2.804567871E0,9.469458160E0,9.908182099E0
1.102192579E1,-6.280938721E-1,2.951711884E0,9.186995544E0,9.669953055E0
1.103187379E1,-3.071612549E-1,3.092419281E0,8.958271179E0,9.481984369E0
1.104182179E1,7.349716187E-2,3.219804382E0,8.966803436E0,9.527649551E0
1.105176879E1,3.342549133E-1,3.248694305E0,9.417216797E0,9.967432630E0
1.106171679E1,2.195933533E-1,3.104843445E0,1.040516235E1,1.086074020E1
1.107166479E1,-2.844085693E-3,2.644850006E0,1.156300461E1,1.186163206E1
1.108161279E1,-2.496807861E-1,2.142494659E0,1.254645950E1,1.273052512E1
1.109155979E1,-5.614823914E-1,1.729353790E0,1.330538132E1,1.342903939E1
1.110150779E1,-8.306227112E-1,1.395847321E0,1.356359436E1,1.366050569E1
1.111145579E1,-9.445358276E-1,1.192420349E0,1.291604095E1,1.300531154E1
1.112140379E1,-8.454418945E-1,1.338965607E0,1.149803970E1,1.160657219E1
1.113135079E1,-6.662644958E-1,1.770069122E0,9.909842377E0,1.008870799E1
1.114129879E1,-5.499563599E-1,2.207309875E0,8.412805481E0,8.714927707E0
1.115124679E1,-4.144880676E-1,2.651585999E0,7.298372955E0,7.776178783E0
1.116119479E1,-3.095562744E-1,3.033142548E0,6.786736908E0,7.440132839E0
1.117114179E1,-2.640509033E-1,3.273542633E0,6.833140411E0,7.581399088E0
1.118108979E1,-3.514691162E-1,3.266058197E0,7.347919922E0,8.048763499E0
1.119103779E1,-4.781057739E-1,3.006348267E0,8.152197418E0,8.702013432E0
1.120098479E1,-4.529580688E-1,2.692301331E0,8.850345612E0,9.261872106E0
1.121093279E1,-2.990780640E-1,2.491419067E0,9.383985901E0,9.713691783E0
1.122088079E1,-1.278341675E-1,2.423161011E0,9.709109802E0,1.000774020E1
1.123082879E1,1.152603149E-2,2.499202881E0,9.939780121E0,1.024916468E1
1.124077579E1,1.234931946E-1,2.589016113E0,9.992769928E0,1.032345416E1
1.125072379E1,1.908531189E-1,2.620750122E0,9.897118835E0,1.024000573E1
1.126067179E1,2.480342102E-1,2.600542145E0,9.676477661E0,1.002290179E1
1.127061979E1,2.929408264E-1,2.615960083E0,9.364676056E0,9.727600892E0
1.128056679E1,3.573069763E-1,2.671793976E0,9.104966125E0,9.495607378E0
1.129051479E1,2.839595032E-1,2.740800476E0,8.954079895E0,9.368466631E0
1.130046279E1,1.546284485E-1,2.730921021E0,8.878038025E0,9.289854614E0
1.131041079E1,5.583389282E-2,2.667303314E0,8.864865417E0,9.257616500E0
1.132035779E1,-3.592529297E-3,2.562521210E0,8.928183746E0,9.288648603E0
1.133030579E1,-9.849517822E-2,2.468965759E0,9.010362854E0,9.343025847E0
1.134025379E1,-1.755848694E-1,2.404300232E0,8.988208923E0,9.305879287E0
1.135020079E1,-2.381547546E-1,2.383194122E0,8.859776001E0,9.177797268E0
1.136014879E1,-2.483335876E-1,2.408491516E0,8.698261871E0,9.028967856E0
1.137009679E1,-3.068618774E-1,2.509681091E0,8.549770660E0,8.915786098E0
1.138004479E1,-3.507206726E-1,2.555036774E0,8.415350189E0,8.801666701E0
1.138999179E1,-3.872447205E-1,2.580633545E0,8.315657501E0,8.715491245E0
1.139993979E1,-3.941304016E-1,2.610122223E0,8.266559601E0,8.677792601E0
1.140988779E1,-3.923341370E-1,2.649640045E0,8.235574036E0,8.660207742E0
1.141983579E1,-4.275109863E-1,2.630330200E0,8.218659210E0,8.639893623E0
1.142978279E1,-5.031037903E-1,2.608475647E0,8.225993958E0,8.644318088E0
1.143973079E1,-5.806425476E-1,2.631078644E0,8.300089874E0,8.726466210E0
1.144967879E1,-5.902226257E-1,2.622845764E0,8.357869720E0,8.779616672E0
1.145962679E1,-6.170169067E-1,2.631976776E0,8.392747192E0,8.817381530E0
1.146957379E1,-5.493576050E-1,2.668201447E0,8.560248871E0,8.983259624E0
1.147952179E1,-3.486250305E-1,2.680176544E0,8.841364288E0,9.245247871E0
1.148946979E1,-1.019380188E-1,2.663261719E0,9.154363403E0,9.534449311E0
1.149941779E1,1.145118713E-1,2.620001678E0,9.391769714E0,9.751044053E0
1.150936479E1,2.284249878E-1,2.531685333E0,9.614057465E0,9.944431081E0
1.151931333E1,2.601589966E-1,2.451601868E0,9.855804749E0,1.015947448E1
1.152926133E1,2.724334717E-1,2.370769958E0,1.013347733E1,1.041067399E1
1.153920833E1,2.712359619E-1,2.266586609E0,1.039528290E1,1.064297375E1
1.154915633E1,2.393522644E-1,2.192939758E0,1.044857208E1,1.067890129E1
1.155910433E1,2.435435486E-1,2.205962677E0,1.027538223E1,1.051232918E1
1.156905233E1,3.552113342E-1,2.254162445E0,9.982291718E0,1.023980329E1
1.157899933E1,5.806425476E-1,2.294728088E0,9.580227814E0,9.868317371E0
1.158894733E1,8.080197144E-1,2.375410309E0,9.298064575E0,9.630652877E0
1.159889533E1,8.351133728E-1,2.494412842E0,9.234147491E0,9.601509760E0
1.160884333E1,6.933581543E-1,2.478096771E0,9.397607574E0,9.743548494E0
1.161879033E1,4.632865906E-1,2.248025208E0,9.623487854E0,9.893420555E0
1.162873833E1,2.257305908E-1,1.852846985E0,1.004501129E1,1.021695885E1
1.163868633E1,-1.122665405E-2,1.461560669E0,1.070154602E1,1.080089685E1
1.164863433E1,-2.294728088E-1,1.106049957E0,1.136945709E1,1.142543473E1
1.165858133E1,-3.903881836E-1,8.469387817E-1,1.182256485E1,1.185928952E1
1.166852933E1,-5.146298218E-1,7.455995178E-1,1.213137268E1,1.216515374E1
1.167847733E1,-5.315446472E-1,7.469467163E-1,1.226848755E1,1.230269303E1
1.168842533E1,-4.448748779E-1,8.532257080E-1,1.204994202E1,1.208830056E1
1.169837233E1,-2.318678284E-1,1.048719177E0,1.135403915E1,1.140472620E1
1.170832033E1,2.724334717E-2,1.346749420E0,1.034408936E1,1.043142659E1
1.171826833E1,2.335144043E-1,1.640887756E0,9.369466095E0,9.514932291E0
1.172821533E1,3.418890381E-1,1.883982239E0,8.657696228E0,8.866903697E0
1.173816333E1,4.743635559E-1,2.078727264E0,8.223748627E0,8.495655907E0
1.174811133E1,5.837860107E-1,2.181713104E0,8.142767029E0,8.450167635E0
1.175805933E1,6.116281128E-1,2.171384583E0,8.395291901E0,8.693096459E0
1.176800633E1,6.207591248E-1,2.070644073E0,8.856632538E0,9.116624851E0
1.177795433E1,6.985972595E-1,1.925446014E0,9.286987610E0,9.510179775E0
1.178790233E1,7.878117371E-1,1.816622314E0,9.571845245E0,9.774506912E0
1.179785033E1,8.214916992E-1,1.805395660E0,9.706864471E0,9.907447702E0
1.180779733E1,8.601113892E-1,1.875599670E0,9.807006226E0,1.002172824E1
1.181774533E1,8.391549683E-1,1.985920258E0,9.852212219E0,1.008534312E1
1.182769333E1,7.798782349E-1,1.993404694E0,9.777367859E0,1.000893574E1
1.183764133E1,6.942562866E-1,1.957479401E0,9.708061981E0,9.927748225E0
1.184758833E1,6.027964783E-1,1.944007416E0,9.680818634E0,9.892460657E0
1.185753633E1,4.893324280E-1,1.880988464E0,9.588460693E0,9.783462695E0
1.186748433E1,4.252656555E-1,1.858834534E0,9.515861664E0,9.705036832E0
1.187743233E1,4.309538269E-1,1.941462708E0,9.449699249E0,9.656697911E0
1.188737933E1,3.439846802E-1,2.027384033E0,9.311835938E0,9.536188967E0
1.189732733E1,1.645079041E-1,2.064955902E0,9.178313599E0,9.409173515E0
1.190727533E1,-7.484436035E-4,2.090552673E0,8.978778534E0,9.218941100E0
1.191722233E1,-1.062789917E-1,2.108515320E0,8.833281097E0,9.082069534E0
1.192717033E1,-2.037263489E-1,2.158511353E0,8.779243469E0,9.042996825E0
1.193711833E1,-2.929408264E-1,2.219284973E0,8.760083313E0,9.041576177E0
1.194706633E1,-3.411405945E-1,2.273621979E0,8.817863159E0,9.112652989E0
1.195701333E1,-3.179388428E-1,2.324815521E0,8.924740906E0,9.228047060E0
1.196696133E1,-3.803590393E-1,2.395169220E0,9.040300598E0,9.359943563E0
1.197690933E1,-4.626878357E-1,2.481090546E0,9.185348969E0,9.525782173E0
1.198685733E1,-5.143304443E-1,2.551444244E0,9.260193329E0,9.619021989E0
1.199680433E1,-4.806504822E-1,2.583777008E0,9.298663330E0,9.662922345E0
1.200675233E1,-4.188290405E-1,2.642904053E0,9.280101929E0,9.658190897E0
1.201670033E1,-3.896397400E-1,2.694696350E0,9.170679474E0,9.566324768E0
1.202664833E1,-3.299139404E-1,2.716101837E0,9.009015656E0,9.415328750E0
1.203659533E1,-2.031275940E-1,2.744692383E0,8.859925690E0,9.277547107E0
1.204654333E1,-5.568420410E-2,2.768492889E0,8.835077362E0,9.258846883E0
1.205649133E1,7.364685059E-2,2.750829620E0,8.884175262E0,9.300594473E0
1.206643933E1,1.230441284E-1,2.653082886E0,8.990603943E0,9.374697217E0
1.207638633E1,9.430389404E-3,2.461930389E0,9.130413208E0,9.456512863E0
1.208633433E1,-2.956352234E-1,2.152374115E0,9.362879791E0,9.611640469E0
1.209628233E1,-7.235952759E-1,1.789229279E0,9.703571320E0,9.893645834E0
1.210623033E1,-1.140328674E0,1.468895416E0,1.003722748E1,1.020803305E1
1.211617733E1,-1.385219421E0,1.281634827E0,1.017359390E1,1.034714616E1
1.212612533E1,-1.371597748E0,1.327439575E0,9.978100433E0,1.015902872E1
1.213607333E1,-1.200802917E0,1.620979156E0,9.581125946E0,9.791193771E0
1.214602133E1,-1.024469604E0,1.999392242E0,9.192683716E0,9.463220446E0
1.215596833E1,-6.722520447E-1,2.290686493E0,8.741222534E0,9.061354138E0
1.216591633E1,-1.323248291E-1,2.565365295E0,8.500972137E0,8.880604497E0
1.217586433E1,3.423381042E-1,2.694696350E0,8.752149811E0,9.163989857E0
1.218581133E1,3.776646423E-1,2.544109497E0,9.761949921E0,1.009508742E1
1.219575933E1,8.412506104E-2,2.097737732E0,1.129251709E1,1.148601423E1
1.220570733E1,-2.240840149E-1,1.475032654E0,1.274045609E1,1.282751559E1
1.221565533E1,-5.860313416E-1,7.807763672E-1,1.386761215E1,1.390193193E1
1.222560233E1,-8.184979248E-1,3.267704773E-1,1.423674454E1,1.426399708E1
1.223555033E1,-8.270301819E-1,2.677931213E-1,1.350626358E1,1.353421028E1
1.224549833E1,-6.393205261E-1,7.409591675E-1,1.178050232E1,1.182108227E1
1.225544633E1,-4.132905579E-1,1.529968414E0,1.012943573E1,1.025266212E1
1.226539333E1,-2.040257263E-1,2.288890228E0,8.837472382E0,9.131350561E0
1.227534133E1,1.571731567E-2,2.825973358E0,8.060138855E0,8.541206637E0
1.228528933E1,2.133064270E-1,3.046913910E0,7.797734528E0,8.374595379E0
1.229523733E1,2.338137817E-1,2.992277527E0,7.965834961E0,8.512515510E0
1.230518433E1,2.424957275E-2,2.640808411E0,8.518785095E0,8.918753086E0
1.231513233E1,-2.098635864E-1,2.176024933E0,9.216783600E0,9.472498464E0
1.232508033E1,-3.625460815E-1,1.783541107E0,9.849817200E0,1.001655417E1
1.233502833E1,-4.679269409E-1,1.447489929E0,1.045979874E1,1.056984259E1
1.234497533E1,-4.285588074E-1,1.249152374E0,1.087249054E1,1.095240133E1
1.235492333E1,-2.914439392E-1,1.241518250E0,1.112905701E1,1.120188453E1
1.236487133E1,-1.294807434E-1,1.353335724E0,1.111274094E1,1.119559261E1
1.237481933E1,7.005432129E-2,1.516646118E0,1.077683945E1,1.088326199E1
1.238476633E1,2.366578674E-1,1.661395111E0,1.019574783E1,1.033293349E1
1.239471433E1,3.471281433E-1,1.856738892E0,9.645492096E0,9.828707699E0
1.240466233E1,4.074526978E-1,2.017654266E0,9.322164459E0,9.546711300E0
1.241460933E1,4.385879517E-1,2.079775085E0,9.273515625E0,9.513985277E0
1.242455733E1,3.912863159E-1,1.984123993E0,9.378597107E0,9.594161594E0
1.243450533E1,2.790197754E-1,1.779948578E0,9.493558044E0,9.663007468E0
1.244445333E1,1.678010559E-1,1.606159973E0,9.478140106E0,9.614730726E0
1.245440033E1,1.170565796E-1,1.558558960E0,9.427545319E0,9.556224098E0
1.246434833E1,5.688171387E-2,1.578916626E0,9.369765472E0,9.502037584E0
1.247429633E1,-2.245330811E-2,1.581311646E0,9.243278503E0,9.377592877E0
1.248424433E1,1.167572021E-2,1.601070557E0,9.031169586E0,9.172000182E0
1.249419133E1,3.442840576E-2,1.667682037E0,8.827443237E0,8.983657540E0
1.250413933E1,-4.041595459E-2,1.795216827E0,8.709638214E0,8.892819279E0
1.251408733E1,-1.242416382E-1,1.845362549E0,8.659791870E0,8.855099895E0
1.252403483E1,-1.261875916E-1,1.844165039E0,8.600066071E0,8.796476818E0
1.253398183E1,-1.326242065E-1,1.849553833E0,8.546477509E0,8.745325401E0
1.254392983E1,-1.631607056E-1,1.889670410E0,8.578510895E0,8.785688638E0
1.255387783E1,-1.327738953E-1,1.955084381E0,8.682095490E0,8.900492455E0
1.256382583E1,-2.978805542E-2,1.987716522E0,8.837921448E0,9.058739417E0
1.257377283E1,1.324745178E-1,1.940714264E0,9.034313049E0,9.241359945E0
1.258372083E1,3.442840576E-1,1.861678619E0,9.199120331E0,9.391921723E0
1.259366883E1,4.701722717E-1,1.799108734E0,9.417965240E0,9.599787679E0
1.260361683E1,5.074447632E-1,1.749711456E0,9.710007935E0,9.879435432E0
1.261356383E1,5.451663208E-1,1.657203827E0,1.002570145E1,1.017635595E1
1.262351183E1,6.406677246E-1,1.594783630E0,1.034962784E1,1.049135770E1
1.263345983E1,6.590794373E-1,1.527872772E0,1.063523392E1,1.076461710E1
1.264340783E1,6.515950012E-1,1.481020203E0,1.067939209E1,1.080126901E1
1.265335483E1,6.661148071E-1,1.492396545E0,1.039049286E1,1.051823646E1
1.266330283E1,5.885760498E-1,1.532662811E0,9.930649109E0,1.006544926E1
1.267325083E1,4.498146057E-1,1.605112152E0,9.540410614E0,9.684944651E0
1.268319783E1,3.848497009E-1,1.653611298E0,9.142537994E0,9.298846197E0
1.269314583E1,3.802093506E-1,1.631307678E0,8.720864868E0,8.880270713E0
1.270309383E1,4.375401306E-1,1.667232971E0,8.440048828E0,8.614263252E0
1.271304183E1,4.484674072E-1,1.732796631E0,8.416398010E0,8.604618681E0
1.272298883E1,2.984793091E-1,1.718127136E0,9.011560364E0,9.178740161E0
1.273293683E1,9.894424438E-2,1.554068298E0,1.029005173E1,1.040721302E1
1.274288483E1,4.550537109E-2,1.144220581E0,1.162856827E1,1.168481542E1
1.275283283E1,9.041198730E-2,7.665559387E-1,1.265034348E1,1.267386967E1
1.276277983E1,1.522334290E-1,4.968168640E-1,1.334340225E1,1.335351585E1
1.277272783E1,1.758842468E-1,3.936813354E-1,1.326975540E1,1.327675897E1
1.278267583E1,2.592608643E-1,5.375321960E-1,1.226818817E1,1.228269507E1
1.279262383E1,4.212240601E-1,9.452842712E-1,1.071681427E1,1.076666616E1
1.280257083E1,5.316943359E-1,1.421444092E0,9.298962708E0,9.421990746E0
1.281251883E1,6.164181519E-1,1.811083832E0,8.256829834E0,8.475566936E0
1.282246683E1,7.574249268E-1,2.110311584E0,7.727680206E0,8.046374890E0
1.283241483E1,8.193960571E-1,2.275418243E0,7.786657562E0,8.153586577E0
1.284236183E1,7.879614258E-1,2.236648865E0,8.445886688E0,8.772484443E0
1.285230983E1,7.406597900E-1,2.058070221E0,9.299711151E0,9.553473580E0
1.286225783E1,7.524851990E-1,1.850002899E0,9.976902924E0,1.017483841E1
1.287220583E1,7.882608032E-1,1.736089783E0,1.043420197E1,1.060697570E1
1.288215283E1,7.583230591E-1,1.717229004E0,1.056488022E1,1.073035989E1
1.289210083E1,6.950047302E-1,1.732197876E0,1.040276733E1,1.056887455E1
1.290204883E1,7.083270264E-1,1.840722198E0,1.012060410E1,1.031099475E1
1.291199683E1,7.723937988E-1,1.995799713E0,9.770482178E0,1.000210631E1
1.292194383E1,8.776249695E-1,2.141446838E0,9.505084076E0,9.782772789E0
1.293189183E1,9.566606140E-1,2.261197815E0,9.452543335E0,9.766206561E0
1.294183983E1,9.613009644E-1,2.307002563E0,9.438771973E0,9.764055342E0
1.295178783E1,8.475375366E-1,2.249372406E0,9.370813293E0,9.674199599E0
1.296173483E1,6.500981140E-1,2.143692169E0,9.223519592E0,9.491646714E0
1.297168283E1,4.556524658E-1,2.086211700E0,9.040300598E0,9.289076022E0
1.298163083E1,3.567082214E-1,2.133962402E0,8.877588959E0,9.137429727E0
1.299157883E1,3.228785706E-1,2.213147736E0,8.839268646E0,9.117836567E0
1.300152583E1,3.270698547E-1,2.304757233E0,8.885672150E0,9.185534832E0
1.301147383E1,3.397933960E-1,2.390079803E0,8.972641296E0,9.291729271E0
1.302142183E1,3.074606323E-1,2.429447937E0,9.100325775E0,9.424047885E0
1.303136883E1,1.811233521E-1,2.397713928E0,9.229656830E0,9.537735735E0
1.304131683E1,6.316864014E-2,2.304607544E0,9.316925354E0,9.597932291E0
1.305126483E1,-7.559280396E-2,2.203417969E0,9.334738312E0,9.591564229E0
1.306121283E1,-1.618135071E-1,2.165846100E0,9.253008270E0,9.504484993E0
1.307115983E1,-1.833686829E-1,2.239193573E0,9.100774841E0,9.373991393E0
1.308110783E1,-4.281097412E-2,2.398911438E0,8.873846741E0,9.192484150E0
1.309105583E1,1.315763855E-1,2.625240784E0,8.667875061E0,9.057663031E0
1.310100383E1,2.365081787E-1,2.840343475E0,8.572972412E0,9.034342431E0
1.311095083E1,3.231779480E-1,2.948568420E0,8.574618988E0,9.073179735E0
1.312089883E1,3.586541748E-1,2.915636902E0,8.571026459E0,9.060467202E0
1.313084683E1,2.812651062E-1,2.862198029E0,8.668473816E0,9.133111513E0
1.314079483E1,1.787283325E-1,2.769391022E0,8.841963043E0,9.267242357E0
1.315074183E1,1.628613281E-1,2.680625610E0,9.009015656E0,9.400778721E0
1.316068983E1,2.306703186E-1,2.636018372E0,9.226962433E0,9.598887300E0
1.317063783E1,2.737806702E-1,2.621199188E0,9.429491272E0,9.790860365E0
1.318058583E1,2.165995789E-1,2.578687592E0,9.553433533E0,9.897708691E0
1.319053283E1,1.318757629E-1,2.505340118E0,9.527088318E0,9.851879625E0
1.320048083E1,5.673202515E-2,2.424358521E0,9.416468353E0,9.723713746E0
1.321042883E1,3.113525391E-2,2.392474823E0,9.315727844E0,9.618091830E0
1.322037683E1,9.131011963E-3,2.388582916E0,9.302255859E0,9.604029144E0
1.323032383E1,1.960922241E-2,2.378553772E0,9.398056641E0,9.694398960E0
1.324027183E1,-1.167572021E-2,2.361938324E0,9.603728943E0,9.889919038E0
1.325021983E1,-3.353027344E-2,2.348915405E0,9.848170624E0,1.012447492E1
1.326016783E1,-7.708969116E-2,2.346670074E0,1.010877869E1,1.037787116E1
1.327011483E1,-2.094145203E-1,2.277663574E0,1.033810181E1,1.058810440E1
1.328006283E1,-4.279600525E-1,2.120789795E0,1.050485504E1,1.072533816E1
1.329001083E1,-5.391787720E-1,1.914518738E0,1.050904633E1,1.069561361E1
1.329995883E1,-5.643264771E-1,1.797462158E0,1.036953644E1,1.053928937E1
1.330990583E1,-4.920268250E-1,1.857637024E0,1.006357269E1,1.024540878E1
1.331985383E1,-3.965254211E-1,2.001787262E0,9.603130188E0,9.817560494E0
1.332980183E1,-3.264710999E-1,2.133513336E0,9.120833130E0,9.372729566E0
1.333974983E1,-2.951861572E-1,2.202968903E0,8.694070587E0,8.973687660E0
1.334969683E1,-3.902384949E-1,2.156415710E0,8.587941284E0,8.863134338E0
1.335964483E1,-6.815327454E-1,1.920955353E0,9.042096863E0,9.268984412E0
1.336959283E1,-9.478289795E-1,1.360071716E0,9.933642883E0,1.007101960E1
1.337953983E1,-1.229543152E0,5.718109131E-1,1.079465240E1,1.087948825E1
1.338948783E1,-1.711690521E0,-8.801696777E-2,1.165641037E1,1.178174580E1
1.339943583E1,-2.049388275E0,-5.038522339E-1,1.230396378E1,1.248364466E1
1.340938383E1,-2.015558624E0,-5.622308350E-1,1.236069580E1,1.253656176E1
1.341933083E1,-1.641935577E0,-2.980302429E-1,1.166763702E1,1.178637044E1
1.342927883E1,-1.137035522E0,3.070115662E-1,1.038899597E1,1.045554127E1
1.343922683E1,-7.457492065E-1,1.102607117E0,9.152866516E0,9.249154004E0
1.344917483E1,-4.870870972E-1,1.818568268E0,8.309071198E0,8.519689463E0
1.345912183E1,-2.177970886E-1,2.283202057E0,8.118517456E0,8.436277194E0
1.346906983E1,-8.936416626E-2,2.374811554E0,8.563991089E0,8.887612685E0
1.347901783E1,-6.212081909E-2,2.080822906E0,9.406588898E0,9.634188998E0
1.348896583E1,1.197509766E-3,1.739682312E0,1.020233414E1,1.034959506E1
1.349891283E1,6.990463257E-2,1.439855804E0,1.091530151E1,1.101008077E1
1.350886083E1,5.792953491E-2,1.242715759E0,1.135793106E1,1.142586085E1
1.351880883E1,4.176315308E-2,1.146465912E0,1.153785690E1,1.159475184E1
1.352875708E1,1.139131165E-1,1.141975250E0,1.156644745E1,1.162324353E1
1.353870408E1,2.900967407E-1,1.225950623E0,1.138143219E1,1.145094362E1
1.354865208E1,4.760101318E-1,1.337319031E0,1.101634140E1,1.110742030E1
1.355860008E1,6.005511475E-1,1.437460785E0,1.063852707E1,1.075198649E1
1.356854808E1,5.382806396E-1,1.486708374E0,1.028391449E1,1.040475589E1
1.357849508E1,4.333488464E-1,1.470841370E0,1.000145187E1,1.011831039E1
1.358844308E1,3.541635132E-1,1.408271484E0,9.709409180E0,9.817397159E0
1.359839108E1,3.091072083E-1,1.379231873E0,9.480086060E0,9.584876604E0
1.360833908E1,3.152444458E-1,1.409169617E0,9.304950256E0,9.416328230E0
1.361828608E1,3.424877930E-1,1.450783081E0,9.193282471E0,9.313351278E0
1.362823408E1,3.812571716E-1,1.456321564E0,9.069190521E0,9.193282669E0
1.363818208E1,4.227209473E-1,1.502425690E0,8.977131958E0,9.111798623E0
1.364813008E1,4.326004028E-1,1.535806274E0,8.935967560E0,9.077299172E0
1.365807708E1,4.056564331E-1,1.557511139E0,8.867410126E0,9.012289411E0
1.366802508E1,3.408412170E-1,1.570534058E0,8.841663666E0,8.986532498E0
1.367797308E1,2.978805542E-1,1.530267792E0,8.718918915E0,8.857200426E0
1.368792108E1,2.230361938E-1,1.524280243E0,8.531209259E0,8.669181439E0
1.369786808E1,1.323248291E-1,1.502874756E0,8.351283417E0,8.486464346E0
1.370781608E1,1.122665405E-2,1.461111603E0,8.261919250E0,8.390130086E0
1.371776408E1,-1.049317932E-1,1.386117554E0,8.339008942E0,8.454076099E0
1.372771208E1,-1.710942078E-1,1.276844788E0,8.515042877E0,8.611942931E0
1.373765908E1,-2.076182556E-1,1.203796692E0,8.767567749E0,8.852258246E0
1.374760708E1,-2.182461548E-1,1.124910736E0,9.063202972E0,9.135354600E0
1.375755508E1,-1.824705505E-1,1.083446960E0,9.290729828E0,9.355469713E0
1.376750208E1,-6.511459351E-2,1.082848206E0,9.452094269E0,9.514141381E0
1.377745008E1,5.733078003E-2,1.118474121E0,9.492659912E0,9.558496921E0
1.378739808E1,1.790277100E-1,1.171314240E0,9.515262909E0,9.588756760E0
1.379734608E1,2.890489197E-1,1.268911285E0,9.582473145E0,9.670443459E0
1.380729308E1,4.083508301E-1,1.363065491E0,9.691446533E0,9.795347561E0
1.381724108E1,4.944218445E-1,1.374292145E0,9.829160156E0,9.937078104E0
1.382718908E1,5.177732849E-1,1.263522491E0,1.004995102E1,1.014229233E1
1.383713708E1,4.908293152E-1,1.121168518E0,1.032238449E1,1.039468873E1
1.384708408E1,4.662803650E-1,9.958790588E-1,1.066621948E1,1.072275294E1
1.385703208E1,4.364923096E-1,8.815168762E-1,1.085093536E1,1.089543004E1
1.386698008E1,4.531077576E-1,7.568261719E-1,1.065050217E1,1.068696818E1
1.387692808E1,5.050497437E-1,7.198530579E-1,1.004531067E1,1.008372600E1
1.388687508E1,4.727169800E-1,7.824229431E-1,9.347910919E0,9.392501560E0
1.389682308E1,4.170327759E-1,9.595046997E-1,8.905730438E0,8.966972747E0
1.390677108E1,5.471122742E-1,1.158590698E0,8.816665649E0,8.909279287E0
1.391671908E1,6.581813049E-1,1.274749146E0,9.039552155E0,9.152687647E0
1.392666608E1,5.670208740E-1,1.253792725E0,9.499994659E0,9.599135763E0
1.393661408E1,2.894979858E-1,1.056203613E0,1.004381378E1,1.010334452E1
1.394656208E1,1.152603149E-2,7.716453552E-1,1.042522064E1,1.045374549E1
1.395651008E1,-1.233435059E-1,6.071374512E-1,1.055724609E1,1.057540896E1
1.396645708E1,-1.017883301E-1,6.045927429E-1,1.057775345E1,1.059550665E1
1.397640508E1,1.496887207E-2,7.694000244E-1,1.048419800E1,1.051240259E1
1.398635308E1,1.351689148E-1,9.551637268E-1,1.026729904E1,1.031251851E1
1.399630108E1,2.249821472E-1,1.081800385E0,9.868378601E0,9.930045582E0
1.400624808E1,2.332150269E-1,1.118474121E0,9.384734344E0,9.454026249E0
1.401619608E1,1.875599670E-1,1.165925446E0,8.910969543E0,8.988878634E0
1.402614408E1,1.067280579E-1,1.205293579E0,8.495583344E0,8.581320402E0
1.403609208E1,1.317260742E-2,1.256038055E0,8.261320496E0,8.356268392E0
1.404603908E1,-9.235794067E-2,1.305135956E0,8.246201935E0,8.349356634E0
1.405598708E1,-1.743873596E-1,1.339264984E0,8.309370575E0,8.418413212E0
1.406593508E1,-2.056723022E-1,1.386267242E0,8.393944702E0,8.510131939E0
1.407588308E1,-1.628613281E-1,1.502276001E0,8.617579651E0,8.749059151E0
1.408583008E1,-1.330732727E-1,1.598376160E0,8.927285614E0,9.070222890E0
1.409577808E1,-5.403762817E-2,1.635199585E0,9.314979401E0,9.457570459E0
1.410572608E1,5.598358154E-2,1.632505188E0,9.708211670E0,9.844672731E0
1.411567408E1,1.645079041E-1,1.650467834E0,1.009171417E1,1.022711112E1
1.412562108E1,2.646496582E-1,1.729054413E0,1.041204803E1,1.055795496E1
1.413556908E1,3.092568970E-1,1.798509979E0,1.060125458E1,1.075717791E1
1.414551708E1,3.246748352E-1,1.815574493E0,1.064885559E1,1.080739792E1
1.415546508E1,3.582051086E-1,1.849703522E0,1.052206924E1,1.068941791E1
1.416541208E1,4.050576782E-1,1.905088348E0,1.028870453E1,1.047143134E1
1.417536008E1,4.584965515E-1,1.996997223E0,1.003617966E1,1.024319868E1
1.418530808E1,4.372407532E-1,2.106419678E0,9.885143738E0,1.011653350E1
1.419525608E1,3.790118408E-1,2.177222443E0,9.767189026E0,1.001408653E1
1.420520308E1,2.216889954E-1,2.139800262E0,9.712702332E0,9.948089151E0
1.421515108E1,3.293151855E-2,2.067350922E0,9.660311279E0,9.879101089E0
1.422509908E1,-1.305285645E-1,2.011217651E0,9.560768280E0,9.770891682E0
1.423504708E1,-2.534230042E-1,1.977537689E0,9.416318665E0,9.625068089E0
1.424499408E1,-3.448828125E-1,1.995500336E0,9.223968658E0,9.443652024E0
1.425494208E1,-4.269122314E-1,2.085762634E0,9.071286163E0,9.317772935E0
1.426489008E1,-5.239105225E-1,2.155367889E0,9.035360870E0,9.303646545E0
1.427483808E1,-5.433700562E-1,2.148781586E0,9.000034332E0,9.268933666E0
1.428478508E1,-4.296066284E-1,2.155068512E0,9.004674683E0,9.268929188E0
1.429473308E1,-3.134481812E-1,2.190694427E0,9.021439819E0,9.288905654E0
1.430468108E1,-3.016227722E-1,2.217488708E0,9.027726746E0,9.300972135E0
1.431462808E1,-3.382965088E-1,2.212099915E0,9.060209198E0,9.332482053E0
1.432457608E1,-3.143463135E-1,2.196831665E0,9.185348969E0,9.449630609E0
1.433452408E1,-1.922003174E-1,2.158661041E0,9.365873566E0,9.613342088E0
1.434447208E1,-5.388793945E-2,2.126627655E0,9.553283844E0,9.787271392E0
1.435441908E1,2.694396973E-3,2.075134735E0,9.723928986E0,9.942886218E0
1.436436708E1,-1.631607056E-2,2.001936951E0,9.773925018E0,9.976854616E0
1.437431508E1,-1.134640503E-1,1.863624573E0,9.634115753E0,9.813366241E0
1.438426308E1,-3.345542908E-1,1.735491028E0,9.344617767E0,9.510296362E0
1.439421008E1,-5.098397827E-1,1.676513672E0,8.938811646E0,9.108951001E0
1.440415808E1,-5.397775269E-1,1.647773438E0,8.509354706E0,8.684217558E0
1.441410608E1,-4.650828552E-1,1.711391144E0,8.191565552E0,8.381342846E0
1.442405408E1,-1.975891113E-1,1.839524689E0,8.031697998E0,8.242030409E0
1.443400108E1,5.807922363E-2,1.952839050E0,8.312813416E0,8.539310302E0
1.444394908E1,2.011816406E-1,1.965263214E0,9.227561188E0,9.436663554E0
1.445389708E1,1.880090332E-1,1.705553284E0,1.032912048E1,1.047067282E1
1.446384508E1,-6.915618896E-2,1.213077393E0,1.117531082E1,1.124117037E1
1.447379208E1,-5.032534790E-1,7.271878052E-1,1.177346695E1,1.180663331E1
1.448374008E1,-8.809181213E-1,2.824626160E-1,1.194171707E1,1.197749592E1
1.449368808E1,-1.127006378E0,3.921844482E-2,1.156764496E1,1.162248215E1
1.450363608E1,-1.154399414E0,1.276844788E-1,1.071172485E1,1.077450652E1
1.451358308E1,-1.024170227E0,5.065466309E-1,9.621691589E0,9.689296320E0
1.452353083E1,-9.009764099E-1,1.054257660E0,8.692274323E0,8.802207144E0
1.453347883E1,-8.656498718E-1,1.543440399E0,7.968229980E0,8.162367732E0
1.454342683E1,-8.360115051E-1,1.820813599E0,7.531737671E0,7.793673700E0
1.455337383E1,-7.836204529E-1,1.927841034E0,7.479645996E0,7.763744992E0
1.456332183E1,-8.128097534E-1,1.903591461E0,7.984845428E0,8.248762129E0
1.457326983E1,-1.022673340E0,1.681453400E0,8.961714020E0,9.175263727E0
1.458321783E1,-1.147064667E0,1.321002960E0,9.952204285E0,1.010480956E1
1.459316483E1,-1.147813110E0,9.560618591E-1,1.069376221E1,1.079759600E1
1.460311283E1,-1.164278870E0,6.671626282E-1,1.118818405E1,1.126836783E1
1.461306083E1,-1.149759064E0,5.035528564E-1,1.140134079E1,1.147022594E1
1.462300883E1,-1.034498749E0,5.131329346E-1,1.135763168E1,1.141618546E1
1.463295583E1,-7.430548096E-1,7.174580383E-1,1.107696533E1,1.112501854E1
1.464290383E1,-4.462220764E-1,1.000220032E0,1.060799057E1,1.066438082E1
1.465285183E1,-2.386038208E-1,1.269809418E0,1.013602203E1,1.021803750E1
1.466279983E1,-1.330732727E-1,1.425635376E0,9.670340424E0,9.775767419E0
1.467274683E1,-1.193019104E-1,1.513802032E0,9.339827728E0,9.462463291E0
1.468269483E1,-1.847158813E-1,1.566193085E0,9.168434143E0,9.303078274E0
1.469264283E1,-3.308120728E-1,1.518143005E0,9.085207214E0,9.217113699E0
1.470259083E1,-4.439767456E-1,1.382075958E0,9.061556396E0,9.177093964E0
1.471253783E1,-5.674699402E-1,1.217418365E0,9.109905853E0,9.208393685E0
1.472248583E1,-6.704557800E-1,1.091530151E0,9.240434418E0,9.328803635E0
1.473243383E1,-7.149133301E-1,1.023870850E0,9.396110687E0,9.478729273E0
1.474238183E1,-7.310797119E-1,9.693841553E-1,9.548643494E0,9.625527297E0
1.475232883E1,-7.020401001E-1,9.464817810E-1,9.637259216E0,9.709039771E0
1.476227683E1,-6.755451965E-1,9.375004578E-1,9.602082367E0,9.671362583E0
1.477222483E1,-7.024891663E-1,9.252259827E-1,9.444310455E0,9.515489169E0
1.478217283E1,-7.936495972E-1,9.457333374E-1,9.268575897E0,9.350443326E0
1.479211983E1,-8.503816223E-1,9.927355957E-1,9.123826904E0,9.216989218E0
1.480206783E1,-7.973918152E-1,1.040785675E0,9.007219391E0,9.102146433E0
1.481201583E1,-6.985972595E-1,1.064137115E0,9.003626862E0,9.093169007E0
1.482196383E1,-5.879772949E-1,1.113384705E0,9.071286163E0,9.158251769E0
1.483191083E1,-4.502636719E-1,1.183439026E0,9.237290955E0,9.323669314E0
1.484185883E1,-3.415896606E-1,1.221310272E0,9.430090027E0,9.514981881E0
1.485180683E1,-2.061213684E-1,1.226998444E0,9.666149139E0,9.745894027E0
1.486175483E1,-7.873626709E-2,1.215771790E0,9.938582611E0,1.001297782E1
1.487170183E1,1.945953369E-2,1.184187469E0,1.016880386E1,1.023754124E1
1.488164983E1,1.342707825E-1,1.155896301E0,1.028765671E1,1.035326062E1
1.489159783E1,2.942880249E-1,1.198707275E0,1.026894562E1,1.034285979E1
1.490154583E1,4.013154602E-1,1.284478912E0,1.018047958E1,1.026903621E1
1.491149283E1,4.568499756E-1,1.359023895E0,1.008437943E1,1.018579237E1
1.492144083E1,4.522096252E-1,1.375639343E0,9.966275024E0,1.007092424E1
1.493138883E1,4.005670166E-1,1.328038330E0,9.920021210E0,1.001653436E1
1.494133683E1,3.183879089E-1,1.254690857E0,1.001193008E1,1.009526444E1
1.495128383E1,3.028202820E-1,1.155147858E0,1.015907410E1,1.022902015E1
1.496123183E1,2.932402039E-1,1.116378479E0,1.025876678E1,1.032349682E1
1.497117983E1,2.874023438E-1,1.115630035E0,1.035262161E1,1.041652556E1
1.498112783E1,2.818638611E-1,1.097218323E0,1.040321640E1,1.046471437E1
1.499107483E1,3.194357300E-1,1.076860657E0,1.049901718E1,1.055893128E1
1.500102283E1,4.093986511E-1,1.080752563E0,1.055335419E1,1.061644564E1
1.501097083E1,5.004093933E-1,1.092727661E0,1.040171951E1,1.047092317E1
1.502091883E1,5.779481506E-1,1.088835754E0,1.000624191E1,1.008188795E1
1.503086583E1,6.243516541E-1,1.119971008E0,9.643396454E0,9.728270412E0
1.504081383E1,7.059320068E-1,1.176553345E0,9.492061157E0,9.590716490E0
1.505076183E1,7.550299072E-1,1.138083344E0,9.585616608E0,9.682424779E0
1.506070983E1,7.277865601E-1,1.022523651E0,9.909093933E0,9.988261634E0
1.507065683E1,5.944139099E-1,8.240364075E-1,1.036998550E1,1.041964314E1
1.508060483E1,3.623963928E-1,5.616320801E-1,1.071801178E1,1.073883319E1
1.509055283E1,8.547225952E-2,3.296145630E-1,1.081051941E1,1.081588097E1
1.510050083E1,-1.353186035E-1,2.026785278E-1,1.066711761E1,1.066990103E1
1.511044783E1,-2.112107849E-1,2.522254944E-1,1.036564453E1,1.037086372E1
1.512039583E1,-2.115101624E-1,4.014651489E-1,1.001507355E1,1.002534832E1
1.513034383E1,-1.948947144E-1,5.752537537E-1,9.664652252E0,9.683718500E0
1.514029183E1,-3.592529297E-2,7.454498291E-1,9.466015320E0,9.495390045E0
1.515023883E1,1.871109009E-1,8.702902222E-1,9.293124847E0,9.335662001E0
1.516018683E1,3.875440979E-1,1.001118164E0,9.228309631E0,9.290539632E0
1.517013483E1,5.034031677E-1,1.133592682E0,9.189989319E0,9.273313906E0
1.518008283E1,5.263055420E-1,1.202299805E0,9.088200989E0,9.182478944E0
1.519002983E1,4.715194702E-1,1.218915253E0,8.975186005E0,9.069842822E0
1.519997783E1,3.730242920E-1,1.171763306E0,8.888516235E0,8.973176541E0
1.520992583E1,2.710862732E-1,1.129251709E0,8.820856934E0,8.896977815E0
1.521987383E1,9.999206543E-2,1.047970734E0,8.740474091E0,8.803642905E0
1.522982083E1,-5.239105225E-2,9.824070740E-1,8.725804596E0,8.781089587E0
1.523976883E1,-1.303788757E-1,9.783654785E-1,8.884774017E0,8.939429904E0
1.524971683E1,-1.306782532E-1,1.006506958E0,9.211544495E0,9.267291138E0
1.525966483E1,-7.319778442E-2,1.004860382E0,9.688003693E0,9.740252453E0
1.526961183E1,-1.541793823E-2,9.376501465E-1,1.011431717E1,1.015769843E1
1.527955983E1,8.666976929E-2,8.896000671E-1,1.036744080E1,1.040589874E1
1.528950783E1,1.345701599E-1,8.641529846E-1,1.056323364E1,1.059937614E1
1.529945583E1,1.405577087E-1,8.797206116E-1,1.066996170E1,1.070708866E1
1.530940283E1,1.251397705E-1,9.044192505E-1,1.067954178E1,1.071850021E1
1.531935083E1,1.812730408E-1,9.607022095E-1,1.061831909E1,1.066323164E1
1.532929883E1,3.079096985E-1,1.000369720E0,1.043315414E1,1.048552590E1
1.533924683E1,4.186793518E-1,1.065334625E0,1.011252090E1,1.017709729E1
1.534919383E1,4.504133606E-1,1.191222839E0,9.688752136E0,9.772093021E0
1.535914183E1,4.631369019E-1,1.329385529E0,9.379944305E0,9.484994299E0
1.536908983E1,4.593946838E-1,1.427581329E0,9.216184845E0,9.337403013E0
1.537903783E1,3.998185730E-1,1.446891174E0,9.205856323E0,9.327440142E0
1.538898483E1,3.338058472E-1,1.404678955E0,9.266779633E0,9.378579534E0
1.539893283E1,2.793191528E-1,1.340013428E0,9.355395355E0,9.455002773E0
1.540888083E1,2.121089172E-1,1.307231598E0,9.463021545E0,9.555240521E0
1.541882883E1,1.787283325E-1,1.321452026E0,9.591155090E0,9.683410311E0
1.542877583E1,2.354603577E-1,1.376836853E0,9.676327972E0,9.776627452E0
1.543872383E1,3.297642517E-1,1.460213470E0,9.694440308E0,9.809339464E0
1.544867183E1,3.965254211E-1,1.566791840E0,9.708810425E0,9.842411744E0
1.545861983E1,3.966751099E-1,1.640738068E0,9.726324005E0,9.871714704E0
1.546856683E1,3.920347595E-1,1.698368225E0,9.719737701E0,9.874788447E0
1.547851483E1,4.673281860E-1,1.738933868E0,9.649833069E0,9.816392662E0
1.548846283E1,4.724176025E-1,1.767973480E0,9.508676605E0,9.683173003E0
1.549841083E1,3.552113342E-1,1.784588928E0,9.284742279E0,9.461362054E0
1.550835783E1,2.628533936E-1,1.802102509E0,9.056167603E0,9.237469188E0
1.551830583E1,1.784289551E-1,1.824106750E0,8.871751099E0,9.059093215E0
1.552825383E1,9.505233765E-2,1.864073639E0,8.735833740E0,8.933006023E0
1.553820183E1,1.077758789E-2,1.911375275E0,8.627908173E0,8.837096301E0
1.554814883E1,-1.225950623E-1,1.929936676E0,8.621770935E0,8.835984336E0
1.555809683E1,-2.531236267E-1,1.908830566E0,8.653055878E0,8.864709906E0
1.556804483E1,-3.617976379E-1,1.894161072E0,8.751700745E0,8.961641012E0
1.557799283E1,-4.668791199E-1,1.850751343E0,8.954978027E0,9.156139367E0
1.558793983E1,-5.550457764E-1,1.823058929E0,9.169631653E0,9.365562681E0
1.559788783E1,-5.629792786E-1,1.795516205E0,9.314979401E0,9.503139762E0
1.560783583E1,-5.794450378E-1,1.805994415E0,9.386530609E0,9.576237740E0
1.561778383E1,-5.926176453E-1,1.868863678E0,9.480086060E0,9.680696195E0
1.562773083E1,-5.830375671E-1,1.919308777E0,9.526788940E0,9.735675965E0
1.563767883E1,-5.652246094E-1,1.940414886E0,9.558522949E0,9.769854132E0
1.564762683E1,-5.828878784E-1,1.950893097E0,9.548793182E0,9.763462162E0
1.565757483E1,-6.201603699E-1,1.947899323E0,9.566905518E0,9.782872372E0
1.566752183E1,-7.015910339E-1,1.947899323E0,9.652826843E0,9.872365867E0
1.567746983E1,-7.737409973E-1,1.949994965E0,9.797426147E0,1.001951669E1
1.568741783E1,-8.102650452E-1,1.957629089E0,9.924661560E0,1.014828794E1
1.569736583E1,-8.322692871E-1,1.930385742E0,9.984087982E0,1.020299339E1
1.570731283E1,-8.981323242E-1,1.917512512E0,9.976902924E0,1.019912192E1
1.571726083E1,-9.551637268E-1,1.947450256E0,9.839788055E0,1.007602745E1
1.572720883E1,-9.445358276E-1,2.018253021E0,9.662706299E0,9.916319186E0
1.573715683E1,-8.731343079E-1,2.137554932E0,9.459578705E0,9.737306295E0
1.574710383E1,-8.065228271E-1,2.281705170E0,9.367071075E0,9.674640980E0
1.575705183E1,-7.723937988E-1,2.343227234E0,9.390422516E0,9.709136989E0
1.576699983E1,-7.535330200E-1,2.330952759E0,9.501042480E0,9.811776648E0
1.577694783E1,-7.012916565E-1,2.302511902E0,9.597591705E0,9.894803565E0
1.578689483E1,-6.486012268E-1,2.241588593E0,9.640851746E0,9.919245201E0
1.579684283E1,-5.896238708E-1,2.191742249E0,9.655670929E0,9.918839220E0
1.580679083E1,-5.143304443E-1,2.155218201E0,9.693392487E0,9.943407826E0
1.581673883E1,-4.860392761E-1,2.092498627E0,9.859247589E0,1.009056726E1
1.582668583E1,-5.352868652E-1,2.030078430E0,1.013841705E1,1.035351394E1
1.583663383E1,-6.637197876E-1,1.946252747E0,1.029274612E1,1.049614436E1
1.584658183E1,-8.138575745E-1,1.914818115E0,1.014380585E1,1.035498381E1
1.585652983E1,-9.312135315E-1,1.981728973E0,9.533524933E0,9.781743506E0
1.586647683E1,-9.514215088E-1,2.142045593E0,8.703351288E0,9.013428085E0
1.587642483E1,-9.648934937E-1,2.358196106E0,8.064479828E0,8.457419419E0
1.588637283E1,-9.650431824E-1,2.558479614E0,7.831713867E0,8.295352215E0
1.589632083E1,-8.300239563E-1,2.731220398E0,7.890391846E0,8.390875289E0
1.590626783E1,-6.517446899E-1,2.832110596E0,8.260272675E0,8.756581880E0
1.591621583E1,-5.508544922E-1,2.825823669E0,8.843160553E0,9.300011218E0
1.592616383E1,-5.566923523E-1,2.693049774E0,9.329648895E0,9.726498443E0
1.593611183E1,-6.219566345E-1,2.504741364E0,9.599687347E0,9.940551118E0
1.594605883E1,-7.119195557E-1,2.366578674E0,9.648336182E0,9.959815016E0
1.595600683E1,-8.240364075E-1,2.299069061E0,9.580676880E0,9.887068525E0
1.596595483E1,-8.690927124E-1,2.302062836E0,9.539512482E0,9.851756891E0
1.597590283E1,-8.274792480E-1,2.345173187E0,9.566007385E0,9.883979789E0
1.598584983E1,-6.950047302E-1,2.387535095E0,9.686357117E0,1.000044347E1
1.599579783E1,-5.447172546E-1,2.430645447E0,9.863588562E0,1.017325580E1
1.600574583E1,-5.664221191E-1,2.431393890E0,1.002046234E1,1.032676986E1
1.601569383E1,-6.990463257E-1,2.357597351E0,1.006821304E1,1.036416156E1
1.602564183E1,-7.704478455E-1,2.277064819E0,9.988129578E0,1.027333181E1
1.603558883E1,-8.454418945E-1,2.252665558E0,9.839338989E0,1.012925791E1
1.604553683E1,-9.750723267E-1,2.270628204E0,9.669891357E0,9.980647141E0
1.605548483E1,-1.034498749E0,2.304607544E0,9.442813568E0,9.774872463E0
1.606543283E1,-1.027463379E0,2.354154510E0,9.188492432E0,9.540760851E0
1.607537983E1,-1.006207581E0,2.406395874E0,8.954528961E0,9.326670559E0
1.608532783E1,-1.048719177E0,2.485431519E0,8.778644714E0,9.183778349E0
1.609527583E1,-1.133143616E0,2.526595917E0,8.757538605E0,9.184888883E0
1.610522383E1,-1.201102295E0,2.549947357E0,8.842711487E0,9.281078854E0
1.611517083E1,-1.266516266E0,2.541265411E0,8.977880402E0,9.416179153E0
1.612511883E1,-1.285227356E0,2.523602142E0,9.048832855E0,9.481653504E0
1.613506683E1,-1.319506073E0,2.523901520E0,9.037306824E0,9.475446680E0
1.614501483E1,-1.309626617E0,2.563569031E0,8.969048767E0,9.419705082E0
1.615496183E1,-1.213676147E0,2.638862457E0,8.857231293E0,9.321327750E0
1.616490983E1,-1.079105988E0,2.755020905E0,8.719817047E0,9.208138751E0
1.617485783E1,-9.515711975E-1,2.869981842E0,8.527916107E0,9.048073643E0
1.618480583E1,-8.595126343E-1,2.955005035E0,8.295449524E0,8.847898029E0
1.619475283E1,-7.548802185E-1,3.034040680E0,8.155191193E0,8.733979069E0
1.620470083E1,-7.156617737E-1,3.088227997E0,8.171956329E0,8.765283463E0
1.621464883E1,-6.939569092E-1,3.106789398E0,8.333769836E0,8.921066990E0
1.622459683E1,-6.131250000E-1,3.085832977E0,8.532257080E0,9.093827484E0
1.623454383E1,-5.393284607E-1,3.035836945E0,8.672665100E0,9.204471798E0
1.624449183E1,-5.824388123E-1,2.992127838E0,8.798703003E0,9.311779556E0
1.625443983E1,-6.999444580E-1,2.945125580E0,8.867859192E0,9.370304882E0
1.626438783E1,-7.915539551E-1,2.854264526E0,8.918304291E0,9.397315312E0
1.627433483E1,-7.955955505E-1,2.775827637E0,8.953181763E0,9.407319226E0
1.628428283E1,-7.867639160E-1,2.750679932E0,9.039103088E0,9.481066511E0
1.629423083E1,-7.316784668E-1,2.790197754E0,9.232650604E0,9.672765585E0
1.630417883E1,-6.707551575E-1,2.809058533E0,9.364825745E0,9.800034875E0
1.631412583E1,-6.747967529E-1,2.815794525E0,9.393116913E0,9.829277430E0
1.632407383E1,-7.496411133E-1,2.849175110E0,9.254505157E0,9.712138092E0
1.633402183E1,-8.605604553E-1,2.901266785E0,8.988957367E0,9.484685962E0
1.634396983E1,-9.916877747E-1,2.953208771E0,8.763675842E0,9.300908609E0
1.635391683E1,-1.064885559E0,3.030897217E0,8.613538055E0,9.193114653E0
1.636386483E1,-9.870474243E-1,3.152444458E0,8.539891205E0,9.156522837E0
1.637381283E1,-8.208929443E-1,3.339255981E0,8.567733307E0,9.232039306E0
1.638376083E1,-7.198530579E-1,3.531007233E0,8.643625488E0,9.364745703E0
1.639370783E1,-6.689588928E-1,3.638932800E0,8.779991913E0,9.527727741E0
1.640365583E1,-6.950047302E-1,3.655398560E0,8.918004913E0,9.663114500E0
1.641360383E1,-8.181985474E-1,3.589984589E0,9.097182312E0,9.814079897E0
1.642355183E1,-9.134005737E-1,3.499422913E0,9.281149750E0,9.960923753E0
1.643349883E1,-8.991801453E-1,3.417992249E0,9.405092010E0,1.004723602E1
1.644344683E1,-7.503895569E-1,3.350632324E0,9.505682831E0,1.010682084E1
1.645339483E1,-5.328918457E-1,3.297343140E0,9.617350616E0,1.018085843E1
1.646334283E1,-2.409988403E-1,3.180436249E0,9.866133270E0,1.036888812E1
1.647328983E1,2.993774414E-4,2.937790833E0,1.024649231E1,1.065932548E1
1.648323783E1,1.309776306E-1,2.683170319E0,1.073986633E1,1.107074013E1
1.649318583E1,1.544787598E-1,2.478246460E0,1.130419281E1,1.157369190E1
1.650313383E1,1.588197327E-1,2.297123108E0,1.161344971E1,1.183951909E1
1.651308083E1,4.864883423E-2,2.084714813E0,1.145507904E1,1.164333450E1
1.652302942E1,-1.498384094E-1,1.894759827E0,1.099897751E1,1.116199232E1
1.653297742E1,-3.489244080E-1,1.906136169E0,1.052102142E1,1.069799024E1
1.654292542E1,-5.598358154E-1,1.975142670E0,1.011237122E1,1.031865574E1
1.655287342E1,-7.665559387E-1,2.006128235E0,9.690997467E0,9.926106508E0
1.656282042E1,-9.858499146E-1,2.039957886E0,9.277407532E0,9.550058573E0
1.657276842E1,-1.047521667E0,2.117646332E0,8.923693085E0,9.231144344E0
1.658271642E1,-1.068627777E0,2.297572174E0,8.798553314E0,9.156164243E0
