"Time (s)","Acceleration x (m/s^2)","Acceleration y (m/s^2)","Acceleration z (m/s^2)","Absolute acceleration (m/s^2)"
-1.147916541E-3,3.923790436E0,3.005150757E0,8.014932861E0,9.416273744E0
8.800083306E-3,3.533551941E0,3.060685272E0,7.306156769E0,8.673736818E0
1.874708338E-2,3.596720581E0,3.029550018E0,7.114555206E0,8.528274622E0
2.869508346E-2,3.637136536E0,2.989283752E0,7.749684448E0,9.067645151E0
3.864208329E-2,3.046165466E0,2.974614258E0,8.859776001E0,9.829704208E0
4.859008337E-2,2.151326294E0,3.090473328E0,1.022329056E1,1.089471891E1
5.853708345E-2,1.450184326E0,3.183879089E0,1.153201904E1,1.205104078E1
6.848508329E-2,1.201701050E0,2.922672272E0,1.236174362E1,1.275926346E1
7.843208336E-2,1.412612457E0,2.360441437E0,1.271246429E1,1.300668698E1
8.838008344E-2,1.653760986E0,1.718276825E0,1.255993149E1,1.278433728E1
9.832708328E-2,2.057471466E0,1.346150665E0,1.200099380E1,1.225027195E1
1.082750834E-1,2.691253510E0,1.358574829E0,1.122889938E1,1.162655376E1
1.182220834E-1,3.312162323E0,1.570683746E0,1.042926224E1,1.105472648E1
1.281700833E-1,3.520379333E0,1.681453400E0,9.682465210E0,1.043889308E1
1.381170833E-1,3.344944153E0,1.578317871E0,9.157057800E0,9.875801043E0
1.480650834E-1,3.420836334E0,1.516646118E0,8.949439545E0,9.700247669E0
1.580120833E-1,3.647614746E0,1.625469818E0,9.090446320E0,9.928920372E0
1.679600833E-1,3.528462524E0,1.678309937E0,9.361831970E0,1.014448963E1
1.779070834E-1,3.059637451E0,1.771416321E0,9.919123077E0,1.053035136E1
1.878550833E-1,2.768492889E0,2.026635590E0,1.089823700E1,1.142555795E1
1.978020833E-1,2.428100739E0,2.073637848E0,1.155162827E1,1.198481384E1
2.077500834E-1,1.638193359E0,1.350641327E0,1.113564331E1,1.133624547E1
2.176970835E-1,1.113384705E0,4.143383789E-1,1.048195267E1,1.054905842E1
2.276450833E-1,1.875749359E0,2.435435486E-1,1.022104523E1,1.039459064E1
2.375920834E-1,3.386407928E0,6.997947693E-1,9.915680237E0,1.050134210E1
2.475400835E-1,4.659809875E0,1.254690857E0,9.547146606E0,1.069748034E1
2.574870833E-1,5.642216949E0,1.492246857E0,9.439819794E0,1.109827061E1
2.674350834E-1,6.165828094E0,1.372645569E0,9.594298553E0,1.148704299E1
2.773820835E-1,5.845793610E0,9.916877747E-1,9.837393036E0,1.148612421E1
2.873300833E-1,4.995112610E0,4.715194702E-1,9.918374634E0,1.111519842E1
2.972770834E-1,4.279301147E0,9.116043091E-2,9.949659576E0,1.083127205E1
3.072250835E-1,3.900738373E0,-8.307723999E-2,9.951904907E0,1.068939067E1
3.171720833E-1,3.766168213E0,-5.478607178E-2,9.960586853E0,1.064895840E1
3.271200834E-1,3.726500702E0,-7.798782349E-2,9.605225830E0,1.030307007E1
3.370670835E-1,3.485651550E0,-2.188449097E-1,9.364975433E0,9.995019995E0
3.470150833E-1,3.129691772E0,-2.239343262E-1,9.319919128E0,9.833921381E0
3.569620834E-1,3.021466827E0,-2.224374390E-1,9.050778809E0,9.544387735E0
3.669100835E-1,3.242108002E0,-3.341052246E-1,8.791068878E0,9.375808371E0
3.768570833E-1,3.683839417E0,-4.505630493E-1,8.861272888E0,9.607072244E0
3.868050834E-1,4.399800568E0,-5.167254639E-1,9.510173492E0,1.049136074E1
3.967520834E-1,5.205574951E0,-6.509962463E-1,9.616901550E0,1.095475249E1
4.067000833E-1,5.007237396E0,-8.045768738E-1,9.329050140E0,1.061842487E1
4.166470834E-1,5.024002533E0,-9.385482788E-1,9.416618042E0,1.071420411E1
4.265950834E-1,4.625082092E0,-1.164727936E0,9.221274261E0,1.038170865E1
4.365420833E-1,4.132306824E0,-1.281335449E0,9.397457886E0,1.034553019E1
4.464900834E-1,3.998934174E0,-1.368454285E0,9.594148865E0,1.048388449E1
4.564370834E-1,3.923790436E0,-1.272054749E0,1.004126907E1,1.085547508E1
4.663850833E-1,3.758085022E0,-1.020727386E0,1.016491196E1,1.088533520E1
4.763320833E-1,3.791166229E0,-6.514453125E-1,1.008752289E1,1.079608449E1
4.862800834E-1,3.959566040E0,-1.737886047E-1,1.016775604E1,1.091291110E1
4.962270833E-1,3.925886078E0,-1.398092651E-1,9.877509613E0,1.063001996E1
5.061750833E-1,3.479364624E0,-2.820734253E0,8.655151520E0,9.745469088E0
5.161220834E-1,2.279160461E0,-9.068142700E-1,1.401640274E1,1.422942129E1
5.260700835E-1,1.320553894E0,2.699037323E0,1.238719070E1,1.274641748E1
5.360170833E-1,1.409618683E0,1.935924225E0,6.853198700E0,7.259556450E0
5.459650834E-1,2.980901184E0,1.280587006E0,5.269492035E0,6.188151683E0
5.559120835E-1,3.947590942E0,5.438191223E-1,4.433630219E0,5.961232289E0
5.658600833E-1,4.515659637E0,9.205856323E-2,4.076921997E0,6.084484342E0
5.758070834E-1,5.353766785E0,4.460723877E-2,4.140390015E0,6.768134016E0
5.857550835E-1,6.108796692E0,-4.745132446E-2,5.136269073E0,7.981284899E0
5.957020833E-1,6.401288452E0,-1.534309387E-1,6.533912659E0,9.148335889E0
6.056500834E-1,7.398365021E0,6.361770630E-2,9.885742493E0,1.234778348E1
6.155970835E-1,7.409591675E0,-3.251239014E-1,1.149759064E1,1.368219079E1
6.255450833E-1,5.926475830E0,-1.387913818E0,9.898166656E0,1.161994508E1
6.354920834E-1,5.898184662E0,-1.538051605E0,8.968749390E0,1.084401451E1
6.454400835E-1,6.622079315E0,-1.131197662E0,6.902595978E0,9.632101216E0
6.553870833E-1,6.516399078E0,-6.477030945E-1,3.345393219E0,7.353545542E0
6.653350834E-1,4.298910370E0,-5.905220032E-1,5.038222961E0,6.649288474E0
6.752820835E-1,3.767964478E0,-3.406915283E-1,6.722819824E0,7.714268171E0
6.852300833E-1,4.744982758E0,4.852908325E-1,7.442373505E0,8.839643202E0
6.951770834E-1,5.566624146E0,1.186582489E0,7.270530853E0,9.233412222E0
7.051250834E-1,8.518934784E0,2.406545563E0,4.300407257E0,9.841606270E0
7.150720833E-1,8.182584229E0,1.826501770E0,5.698200531E0,1.013707466E1
7.250200834E-1,5.328918457E0,-1.956431580E-1,8.217162323E0,9.795785053E0
7.349670834E-1,3.297193451E0,-1.352138214E0,8.962312775E0,9.644833471E0
7.449150833E-1,2.783012695E0,-1.487456818E0,9.480834503E0,9.992192468E0
7.548620834E-1,3.491489410E0,-1.232237549E0,9.801318054E0,1.047734429E1
7.648098334E-1,4.419858856E0,-7.937992859E-1,9.819430389E0,1.079752207E1
7.747568334E-1,4.372108154E0,-6.968009949E-1,9.540410614E0,1.051761836E1
7.847048333E-1,3.605103149E0,-1.292562103E0,9.915979614E0,1.062987005E1
7.946518334E-1,2.242337036E0,-1.223705292E0,9.108858032E0,9.460276142E0
8.045998334E-1,1.032103729E0,-2.595602417E-1,7.888745270E0,7.960208010E0
8.145468333E-1,1.953288116E0,6.366261292E-1,8.730894012E0,8.969344321E0
8.244948334E-1,3.157234497E0,1.146166534E0,1.100855759E1,1.150956852E1
8.344418334E-1,2.764600983E0,9.300160217E-1,1.162332916E1,1.198372768E1
8.443898333E-1,2.285896454E0,3.327580261E-1,1.105810455E1,1.129680162E1
8.543368333E-1,2.088157654E0,-1.098715210E-1,1.043270508E1,1.064019781E1
8.642848334E-1,2.117346954E0,-3.911366272E-1,1.002121078E1,1.024991764E1
8.742318333E-1,1.882784729E0,-3.917353821E-1,9.965227203E0,1.014909297E1
8.841798333E-1,1.286424866E0,-4.505630493E-2,1.027433441E1,1.035465435E1
8.941268334E-1,1.009650421E0,4.836442566E-1,1.039438477E1,1.045449857E1
9.040748333E-1,8.854087830E-1,1.115779724E0,1.051608170E1,1.061211041E1
9.140218333E-1,5.034031677E-1,1.201850739E0,1.045964905E1,1.054049895E1
9.239698334E-1,1.956431580E-1,1.302591248E0,9.657018127E0,9.746436237E0
9.339168335E-1,-1.826202393E-2,1.349593506E0,9.034462738E0,9.134727861E0
9.438648333E-1,7.813751221E-2,1.370549927E0,8.597671051E0,8.706575680E0
9.538118334E-1,1.498384094E-1,1.455124054E0,8.355325012E0,8.482410838E0
9.637598335E-1,2.836601257E-1,1.508413239E0,8.602910156E0,8.738754872E0
9.737068333E-1,4.481680298E-1,1.525926819E0,8.929381256E0,9.069903906E0
9.836548334E-1,4.170327759E-1,1.407523041E0,8.847800903E0,8.968757900E0
9.936018335E-1,1.098715210E-1,1.159339142E0,8.811576233E0,8.888195245E0
1.003549833E0,-2.380050659E-1,9.348060608E-1,8.966504059E0,9.018242834E0
1.013496833E0,-5.391787720E-1,8.611592102E-1,9.405690765E0,9.460408432E0
1.023444833E0,-8.414002991E-1,8.497828674E-1,9.980345764E0,1.005173552E1
1.033391833E0,-1.004710693E0,7.828720093E-1,1.040067169E1,1.047837315E1
1.043339833E0,-8.945397949E-1,6.652166748E-1,1.052461395E1,1.058348778E1
1.053286833E0,-5.724096680E-1,5.719606018E-1,1.053075119E1,1.056179494E1
1.063234833E0,-9.744735718E-2,5.233117676E-1,1.044782364E1,1.046137515E1
1.073181833E0,2.336640930E-1,5.150788879E-1,1.018721558E1,1.020290480E1
1.083129833E0,1.483415222E-1,5.117857361E-1,9.908644867E0,9.922961904E0
1.093077833E0,-2.421963501E-1,5.363346863E-1,9.844129028E0,9.861703215E0
1.103024833E0,-7.596702576E-1,6.637197876E-1,1.001043320E1,1.006113292E1
1.112971833E0,-1.098565521E0,8.687933350E-1,1.012015503E1,1.021661323E1
1.122919833E0,-1.008303223E0,1.026116180E0,1.008572662E1,1.018780994E1
1.132867833E0,-6.634204102E-1,1.162482605E0,9.985135803E0,1.007444437E1
1.142814833E0,-1.881587219E-1,1.254391479E0,9.646988983E0,9.730020459E0
1.152761833E0,1.375639343E-1,1.240919495E0,9.279652863E0,9.363266646E0
1.162709833E0,2.170486450E-1,1.231788483E0,8.842861176E0,8.930879394E0
1.172656833E0,2.396516418E-1,1.305135956E0,8.459957428E0,8.563392579E0
1.182604833E0,2.823129272E-1,1.431473236E0,8.324788513E0,8.451681490E0
1.192552833E0,2.948867798E-1,1.542392578E0,8.471782837E0,8.616091777E0
1.202499833E0,3.258723450E-1,1.643282776E0,8.938212891E0,9.093856209E0
1.212447833E0,3.378474426E-1,1.672172699E0,9.493108978E0,9.645176022E0
1.222394833E0,3.957769775E-1,1.707648926E0,9.789642334E0,9.945340683E0
1.232342833E0,5.758525085E-1,1.771715698E0,9.633217621E0,9.811700381E0
1.242289833E0,8.391549683E-1,1.800455933E0,9.275311890E0,9.485632993E0
1.252237833E0,1.154399414E0,1.830992432E0,8.749156036E0,9.012929748E0
1.262184833E0,1.545985107E0,1.937870178E0,8.291707306E0,8.654352710E0
1.272132833E0,1.872755585E0,2.057321777E0,8.123756561E0,8.586920696E0
1.282079833E0,2.081421661E0,2.079176331E0,8.238418121E0,8.747961105E0
1.292027833E0,2.205064545E0,2.043101349E0,8.424331512E0,8.944603636E0
1.301974833E0,2.320773926E0,2.113455048E0,8.620423737E0,9.174115175E0
1.311922833E0,2.399659882E0,2.306852875E0,8.737180939E0,9.349773713E0
1.321869833E0,2.428998871E0,2.491718445E0,8.828940125E0,9.489935724E0
1.331817833E0,2.441872101E0,2.571801910E0,8.848100281E0,9.532354536E0
1.341764833E0,2.470911713E0,2.600991211E0,8.687633972E0,9.399231033E0
1.351712833E0,2.464774475E0,2.672093353E0,8.437504120E0,9.187310372E0
1.361659833E0,2.455942841E0,2.736459503E0,8.258476410E0,9.040038632E0
1.371607833E0,2.511477356E0,2.862647095E0,8.157885590E0,9.002964189E0
1.381554833E0,2.548450470E0,2.953208771E0,8.045469360E0,8.941231407E0
1.391502833E0,2.617606659E0,2.818189545E0,7.937244415E0,8.820085365E0
1.401449833E0,2.713108063E0,2.549797668E0,8.124205627E0,8.936729860E0
1.411397833E0,2.869682465E0,2.292033691E0,8.743617554E0,9.483635580E0
1.421344833E0,3.113076324E0,2.068099365E0,9.433832245E0,1.014719025E1
1.431292833E0,3.341351624E0,1.913470917E0,9.925559692E0,1.064625459E1
1.441239833E0,3.409759369E0,1.770218811E0,1.008408005E1,1.079114470E1
1.451187833E0,3.407514038E0,1.693428497E0,1.001731888E1,1.071566748E1
1.461134833E0,3.492088165E0,1.729503479E0,9.761500854E0,1.051060231E1
1.471082833E0,3.583697662E0,1.818867645E0,9.405690765E0,1.022830324E1
1.481029833E0,3.585643616E0,1.895208893E0,9.109905853E0,9.971912632E0
1.490977833E0,3.507356415E0,1.856140137E0,9.143585815E0,9.967545675E0
1.500924833E0,3.418890381E0,1.787882080E0,9.301058350E0,1.006950943E1
1.510872833E0,3.269950104E0,1.669328613E0,9.497899017E0,1.018279517E1
1.520819833E0,3.149450684E0,1.509760437E0,9.785451050E0,1.039006585E1
1.530767833E0,3.165167999E0,1.321302338E0,1.003647903E1,1.060636789E1
1.540714833E0,3.404370575E0,1.144370270E0,1.007075775E1,1.069202899E1
1.550662833E0,3.586691437E0,8.904981995E-1,1.013931519E1,1.079180499E1
1.560609833E0,3.673061829E0,6.563850403E-1,1.016655853E1,1.082964159E1
1.570557833E0,3.764821014E0,5.831872559E-1,1.020637573E1,1.089422279E1
1.580504833E0,3.830833740E0,5.713618469E-1,1.018242554E1,1.089419714E1
1.590452833E0,3.797153778E0,5.989045715E-1,1.008572662E1,1.079346770E1
1.600399833E0,3.775149536E0,6.372248840E-1,9.955796814E0,1.066656926E1
1.610347833E0,3.718118134E0,6.412664795E-1,9.814490662E0,1.051474451E1
1.620294833E0,3.511098633E0,6.375242615E-1,9.682465210E0,1.031912706E1
1.630242833E0,3.316652985E0,6.113287354E-1,9.617500305E0,1.019167415E1
1.640189833E0,3.300785980E0,6.351292419E-1,9.486372986E0,1.006428585E1
1.650137833E0,3.301684113E0,6.370751953E-1,9.385333099E0,9.969526577E0
1.660084833E0,3.181184692E0,6.321354675E-1,9.401200104E0,9.944953227E0
1.670032833E0,3.004102936E0,6.375242615E-1,9.507179718E0,9.990872726E0
1.679979833E0,2.849474487E0,6.412664795E-1,9.586514740E0,1.002157634E1
1.689927833E0,2.672392731E0,6.316864014E-1,9.708211670E0,1.008910722E1
1.699874833E0,2.457739105E0,6.224057007E-1,9.840087433E0,1.016145615E1
1.709822833E0,2.330054626E0,6.337820435E-1,1.000639160E1,1.029362459E1
1.719769833E0,2.203417969E0,5.703140259E-1,1.017494110E1,1.042639608E1
1.729717833E0,1.933978271E0,4.996609497E-1,1.026176056E1,1.045436095E1
1.739664833E0,1.712289276E0,4.037104797E-1,1.025951523E1,1.040925403E1
1.749612833E0,1.593436432E0,3.691323853E-1,1.013123199E1,1.026241493E1
1.759560583E0,1.598226471E0,4.137396240E-1,1.001657043E1,1.015170880E1
1.769508583E0,1.678309937E0,4.598437500E-1,9.906399536E0,1.005807796E1
1.779455583E0,1.865570526E0,5.194198608E-1,9.594747620E0,9.788224163E0
1.789403583E0,2.092798004E0,5.632786560E-1,9.328301697E0,9.576758266E0
1.799350583E0,2.376757507E0,6.180647278E-1,9.076076202E0,9.402453908E0
1.809298583E0,2.656226349E0,7.183561707E-1,8.800199890E0,9.220362906E0
1.819245583E0,2.824925537E0,8.196954346E-1,8.670270081E0,9.155636961E0
1.829193583E0,2.962489471E0,8.890013123E-1,8.685837708E0,9.220110839E0
1.839140583E0,3.066972198E0,9.861492920E-1,8.743467865E0,9.318102768E0
1.849088583E0,3.083887024E0,1.106349335E0,8.737031250E0,9.331135145E0
1.859035583E0,2.988235931E0,1.239123230E0,8.632099457E0,9.218357847E0
1.868983583E0,2.760709076E0,1.306632843E0,8.546776886E0,9.076133490E0
1.878930583E0,2.591560822E0,1.411414948E0,8.430917816E0,8.932449545E0
1.888878583E0,2.543510742E0,1.557361450E0,8.329279175E0,8.847130221E0
1.898825583E0,2.570454712E0,1.664987640E0,8.206534424E0,8.759373751E0
1.908773583E0,2.682721252E0,1.709295502E0,8.132588196E0,8.732564067E0
1.918720583E0,2.789598999E0,1.753154297E0,8.234526215E0,8.869207098E0
1.928668583E0,2.846780090E0,1.744921417E0,8.380323029E0,9.021015558E0
1.938615583E0,2.805316315E0,1.734143829E0,8.516090698E0,9.132406869E0
1.948563583E0,2.719245300E0,1.736987915E0,8.765771484E0,9.340780039E0
1.958510583E0,2.494412842E0,1.792971497E0,9.090296631E0,9.595328814E0
1.968458583E0,2.245330811E0,1.912572784E0,9.419911194E0,9.870874936E0
1.978405583E0,2.129322052E0,2.005529480E0,9.595795441E0,1.003172224E1
1.988353583E0,2.110311584E0,2.033521271E0,9.555978241E0,9.995266074E0
1.998300583E0,2.020947418E0,2.014810181E0,9.482780457E0,9.902868964E0
2.008248583E0,2.006577301E0,1.953886871E0,9.475894775E0,9.881123831E0
2.018195583E0,2.086660767E0,1.906285858E0,9.408385162E0,9.823736066E0
2.028143583E0,2.089504852E0,1.884880371E0,9.409882050E0,9.821643688E0
2.038090583E0,2.015708313E0,1.893262939E0,9.498048706E0,9.892444278E0
2.048038583E0,1.946252747E0,1.926493835E0,9.529034271E0,9.914725029E0
2.057985583E0,1.814077606E0,1.926493835E0,9.545500031E0,9.905494783E0
2.067933583E0,1.728755035E0,1.864073639E0,9.648186493E0,9.977518083E0
2.077880583E0,1.670975189E0,1.826352081E0,9.805060272E0,1.011271116E1
2.087828583E0,1.666484528E0,1.854194183E0,9.934690704E0,1.024271869E1
2.097775583E0,1.804946594E0,1.954785004E0,9.939780121E0,1.028971552E1
2.107723583E0,1.927691345E0,1.998194733E0,9.865235138E0,1.024849455E1
2.117670583E0,1.804347839E0,1.974244537E0,9.787846069E0,1.014668632E1
2.127618583E0,1.573827209E0,1.898651733E0,9.748328247E0,1.005543207E1
2.137565583E0,1.449884949E0,1.835632782E0,9.675579529E0,9.954323347E0
2.147513583E0,1.354383545E0,1.766476593E0,9.585017853E0,9.840089511E0
2.157460583E0,1.335073700E0,1.692081299E0,9.590706024E0,9.829913680E0
2.167408583E0,1.353036346E0,1.615290985E0,9.636361084E0,9.864042136E0
2.177355583E0,1.408870239E0,1.523382111E0,9.647887115E0,9.868502125E0
2.187303583E0,1.453926544E0,1.423240356E0,9.720635834E0,9.931277688E0
2.197250583E0,1.472188568E0,1.354383545E0,9.818681946E0,1.002038967E1
2.207198583E0,1.474733276E0,1.270108795E0,9.949958954E0,1.013852542E1
2.217145583E0,1.435365143E0,1.237326965E0,1.020936951E1,1.038376025E1
2.227093583E0,1.294358368E0,1.152154083E0,1.052925430E1,1.067089588E1
2.237040583E0,1.034648438E0,1.077160034E0,1.078207855E1,1.088503510E1
2.246988583E0,7.069798279E-1,1.020577698E0,1.099927689E1,1.106912333E1
2.256935583E0,3.998185730E-1,9.478289795E-1,1.113025452E1,1.117769208E1
2.266883583E0,2.884501648E-1,8.538244629E-1,1.108055786E1,1.111714812E1
2.276830583E0,3.579057312E-1,8.657995605E-1,1.068972061E1,1.073069579E1
2.286778583E0,4.730163574E-1,9.141490173E-1,1.009455826E1,1.014689703E1
2.296725583E0,5.400769043E-1,9.720785522E-1,9.501491547E0,9.566345247E0
2.306673583E0,5.545967102E-1,1.026116180E0,8.959768066E0,9.035371366E0
2.316620583E0,4.837939453E-1,1.089284821E0,8.616232452E0,8.698279121E0
2.326568583E0,3.263214111E-1,1.151854706E0,8.625213776E0,8.707902595E0
2.336515583E0,1.558259583E-1,1.219514008E0,8.863667908E0,8.948525293E0
2.346463583E0,-6.885681152E-3,1.276395721E0,9.227860565E0,9.315720265E0
2.356410583E0,-1.457968140E-1,1.367406464E0,9.538314972E0,9.636934661E0
2.366358583E0,-1.865121460E-1,1.440903625E0,9.657766571E0,9.766444859E0
2.376305583E0,-1.839674377E-1,1.515598297E0,9.533075867E0,9.654554246E0
2.386253583E0,-2.383044434E-1,1.626817017E0,9.253906403E0,9.398835370E0
2.396200583E0,-3.007246399E-1,1.672771454E0,8.912167053E0,9.072779135E0
2.406148583E0,-3.293151855E-1,1.649270325E0,8.696914673E0,8.858039621E0
2.416095583E0,-3.112028503E-1,1.652114410E0,8.596024475E0,8.758879267E0
2.426043583E0,-2.398013306E-1,1.702409821E0,8.590785370E0,8.761124194E0
2.435990583E0,-2.275268555E-1,1.774709473E0,8.696465607E0,8.878619050E0
2.445938583E0,-2.519261169E-1,1.849853210E0,8.853040009E0,9.047747845E0
2.455885583E0,-2.320175171E-1,1.950294342E0,8.952732697E0,9.165637069E0
2.465833583E0,-2.154020691E-1,2.043251038E0,9.010213165E0,9.241494151E0
2.475780583E0,-1.800755310E-1,2.114652557E0,8.963360596E0,9.211189706E0
2.485728583E0,-9.250762939E-2,2.176024933E0,8.843010864E0,9.107276394E0
2.495675583E0,5.418731689E-2,2.214195557E0,8.749006348E0,9.025004726E0
2.505623583E0,2.317181396E-1,2.230361938E0,8.745264130E0,9.028169935E0
2.515570583E0,3.357518005E-1,2.227817230E0,8.841663666E0,9.124193951E0
2.525518583E0,4.337979126E-1,2.214794312E0,8.942254486E0,9.222657413E0
2.535465583E0,5.679190063E-1,2.284249878E0,9.034762115E0,9.336340610E0
2.545413583E0,6.345304871E-1,2.347867584E0,9.074130249E0,9.394410621E0
2.555360583E0,6.435118103E-1,2.421215057E0,9.092991028E0,9.431801293E0
2.565308583E0,5.968089294E-1,2.479294281E0,9.078920288E0,9.430263762E0
2.575255583E0,4.426295471E-1,2.473755798E0,9.102122040E0,9.442669871E0
2.585203583E0,3.258723450E-1,2.524799652E0,9.200317841E0,9.546028202E0
2.595150583E0,2.757266235E-1,2.637215881E0,9.227860565E0,9.601267801E0
2.605098583E0,2.742297363E-1,2.706671448E0,9.198371887E0,9.592253002E0
2.615045583E0,2.812651062E-1,2.732717285E0,9.170978851E0,9.573594253E0
2.624993583E0,1.824705505E-1,2.803370361E0,9.132957916E0,9.555265626E0
2.634940583E0,1.508862305E-1,2.904559937E0,9.119186554E0,9.571770917E0
2.644888583E0,2.194436646E-1,2.987188110E0,9.202114105E0,9.677311214E0
2.654835583E0,2.668949890E-1,3.002456360E0,9.307944031E0,9.783854006E0
2.664783583E0,3.321592712E-1,2.996319122E0,9.502090302E0,9.968850393E0
2.674730583E0,2.835104370E-1,2.945874023E0,9.801617432E0,1.023866477E1
2.684678583E0,2.133064270E-1,2.890489197E0,1.015563126E1,1.056112085E1
2.694625583E0,2.336640930E-1,2.867137756E0,1.042162811E1,1.081135562E1
2.704573583E0,2.703378296E-1,2.739004211E0,1.064152084E1,1.099168743E1
2.714520583E0,3.279679871E-1,2.599344635E0,1.067235672E1,1.098923808E1
2.724468583E0,4.830455017E-1,2.534978485E0,1.056128769E1,1.087199368E1
2.734415583E0,6.899153137E-1,2.551893311E0,1.033450928E1,1.066725010E1
2.744363583E0,8.716374207E-1,2.578837280E0,1.007749374E1,1.043867969E1
2.754310583E0,9.783654785E-1,2.598895569E0,1.001941452E1,1.039712097E1
2.764258250E0,9.136999512E-1,2.517315216E0,1.021341110E1,1.055866894E1
2.774205250E0,7.285350037E-1,2.379900970E0,1.051039352E1,1.080106772E1
2.784153250E0,6.653663635E-1,2.290087738E0,1.079704742E1,1.105728029E1
2.794100250E0,6.764433289E-1,2.177222443E0,1.110151428E1,1.133320310E1
2.804048250E0,6.568341064E-1,2.016756134E0,1.127784760E1,1.147556459E1
2.813995250E0,6.280938721E-1,1.762584686E0,1.127021347E1,1.142448766E1
2.823943250E0,7.053332520E-1,1.516496429E0,1.109627518E1,1.122161215E1
2.833890250E0,7.905061340E-1,1.281335449E0,1.089195007E1,1.099551258E1
2.843838250E0,8.434959412E-1,1.064735870E0,1.072070618E1,1.080641887E1
2.853785250E0,8.452922058E-1,8.580157471E-1,1.056952057E1,1.063792625E1
2.863733250E0,8.810678101E-1,6.638694763E-1,1.055440201E1,1.061189921E1
2.873680250E0,1.050066376E0,5.192701721E-1,1.066981201E1,1.073392609E1
2.883628250E0,1.298849030E0,4.995112610E-1,1.066756668E1,1.075795051E1
2.893575250E0,1.614692230E0,5.596861267E-1,1.053045181E1,1.066821892E1
2.903523250E0,1.865869904E0,6.267466736E-1,1.018467087E1,1.037312887E1
2.913471250E0,1.996248779E0,6.758445740E-1,9.741891632E0,9.967257780E0
2.923418250E0,2.116897888E0,7.846682739E-1,9.264384613E0,9.535501205E0
2.933365250E0,2.190993805E0,9.243278503E-1,8.813671875E0,9.128836057E0
2.943313250E0,2.235601044E0,1.093476105E0,8.507109375E0,8.863662445E0
2.953260250E0,2.257006531E0,1.232686615E0,8.363707581E0,8.750154242E0
2.963208250E0,2.270179138E0,1.342857513E0,8.401129761E0,8.805450635E0
2.973155250E0,2.212998047E0,1.356329498E0,8.532107391E0,8.918175071E0
2.983103250E0,2.073188782E0,1.286275177E0,8.733438721E0,9.067831463E0
2.993050250E0,1.898502045E0,1.243464203E0,8.860823822E0,9.146841643E0
3.002998250E0,1.634301453E0,1.209035797E0,8.978479156E0,9.205748028E0
3.012946250E0,1.232836304E0,1.175355835E0,9.132957916E0,9.290439548E0
3.022893250E0,8.653504944E-1,1.135388947E0,9.281449127E0,9.390593029E0
3.032841250E0,6.968009949E-1,1.111588440E0,9.380093994E0,9.471395031E0
3.042788250E0,7.039860535E-1,1.124461670E0,9.429042206E0,9.521914058E0
3.052736250E0,7.393125916E-1,1.139580231E0,9.459578705E0,9.556613181E0
3.062683250E0,7.168592834E-1,1.152154083E0,9.518705750E0,9.614941779E0
3.072631250E0,6.905140686E-1,1.175655212E0,9.420509949E0,9.518664956E0
3.082578250E0,7.189549255E-1,1.187779999E0,9.285041656E0,9.388275458E0
3.092526250E0,7.454498291E-1,1.231040039E0,9.181606750E0,9.293710645E0
3.102473250E0,7.927514648E-1,1.303190002E0,9.130862274E0,9.257397309E0
3.112421250E0,8.587641907E-1,1.359922028E0,9.028624878E0,9.170765019E0
3.122368250E0,8.099656677E-1,1.449735260E0,8.939709778E0,9.092644699E0
3.132316250E0,6.755451965E-1,1.526675262E0,8.872948608E0,9.028638639E0
3.142263250E0,5.890251160E-1,1.740281067E0,8.662785645E0,8.855471975E0
3.152211250E0,4.760101318E-1,1.971250763E0,8.422684937E0,8.663373290E0
3.162158250E0,4.878355408E-1,2.087109833E0,8.195906525E0,8.471534379E0
3.172106250E0,5.974076843E-1,2.118993530E0,8.023764496E0,8.320326088E0
3.182053250E0,6.234535217E-1,2.067949677E0,8.065527649E0,8.349721338E0
3.192001250E0,6.168672180E-1,2.036515045E0,8.161627808E0,8.434458321E0
3.201948250E0,6.792874146E-1,2.036365356E0,8.235424347E0,8.510606878E0
3.211896250E0,7.403604126E-1,2.061213684E0,8.293204193E0,8.577527102E0
3.221843250E0,6.870712280E-1,2.124532013E0,8.405919800E0,8.697424379E0
3.231791250E0,6.225553894E-1,2.157613220E0,8.616382141E0,8.904207501E0
3.241738250E0,5.457650757E-1,2.179467773E0,8.862470398E0,9.142828930E0
3.251686250E0,3.571572876E-1,2.163750458E0,9.145831146E0,9.405083983E0
3.261633250E0,1.492396545E-1,2.047142944E0,9.458381195E0,9.678535093E0
3.271581250E0,-1.193019104E-1,1.948348389E0,9.816586304E0,1.000877920E1
3.281528250E0,-2.980302429E-1,1.897304535E0,1.011072464E1,1.029151783E1
3.291476250E0,-3.266207886E-1,1.789977722E0,1.026909531E1,1.042904693E1
3.301423250E0,-3.094065857E-1,1.643582153E0,1.035037628E1,1.048462607E1
3.311371250E0,-3.005749512E-1,1.505718842E0,1.033510803E1,1.044854021E1
3.321318250E0,-3.356021118E-1,1.469494171E0,1.031190628E1,1.042148996E1
3.331266250E0,-3.486250305E-1,1.567240906E0,1.021266266E1,1.033809760E1
3.341213250E0,-2.586621094E-1,1.706002350E0,1.009725266E1,1.024362540E1
3.351161250E0,-3.005749512E-1,1.715432739E0,1.008961853E1,1.023882107E1
3.361108250E0,-4.915777588E-1,1.604363708E0,1.011985565E1,1.025802661E1
3.371056250E0,-6.230044556E-1,1.607507172E0,1.014530273E1,1.029074251E1
3.381003250E0,-6.225553894E-1,1.719174957E0,1.009485764E1,1.025910758E1
3.390951250E0,-5.875282288E-1,1.894011383E0,9.976154480E0,1.017133849E1
3.400898250E0,-5.556445312E-1,1.875150604E0,9.802216187E0,9.995417590E0
3.410846250E0,-5.891748047E-1,1.790875854E0,9.694140930E0,9.875764864E0
3.420793250E0,-5.710624695E-1,1.757495270E0,9.717791748E0,9.891935019E0
3.430741250E0,-6.274951172E-1,1.731748810E0,9.868228912E0,1.003865758E1
3.440688250E0,-8.186476135E-1,1.582658844E0,1.016610947E1,1.032108398E1
3.450636250E0,-9.526190186E-1,1.381028137E0,1.046728317E1,1.060088387E1
3.460583250E0,-8.680448914E-1,1.215023346E0,1.068897217E1,1.079277118E1
3.470531250E0,-6.375242615E-1,1.096320190E0,1.076202026E1,1.083648630E1
3.480478250E0,-4.305047607E-1,9.915380859E-1,1.062730042E1,1.068213444E1
3.490426250E0,-2.432441711E-1,9.599537659E-1,1.038944504E1,1.043653425E1
3.500373250E0,-1.392105103E-1,1.049168243E0,1.010383896E1,1.015911882E1
3.510321250E0,-1.948947144E-1,1.189426575E0,9.874815216E0,9.948100074E0
3.520268250E0,-3.103047180E-1,1.294058990E0,9.825717316E0,9.915422253E0
3.530216250E0,-3.388952637E-1,1.342258759E0,9.842931519E0,9.939809327E0
3.540163250E0,-3.088078308E-1,1.356329498E0,9.855505371E0,9.953189343E0
3.550111250E0,-2.299218750E-1,1.375339966E0,9.775122528E0,9.874079427E0
3.560058250E0,-6.376739502E-2,1.421893158E0,9.607022095E0,9.711885500E0
3.570006250E0,-3.951782227E-2,1.425036621E0,9.422455902E0,9.529688676E0
3.579953250E0,-7.349716187E-2,1.449884949E0,9.256900177E0,9.370046376E0
3.589901250E0,-2.291734314E-1,1.541195068E0,9.183253326E0,9.314501831E0
3.599848250E0,-4.351451111E-1,1.613494720E0,9.172475739E0,9.323466504E0
3.609796250E0,-4.935237122E-1,1.667232971E0,9.159303131E0,9.322878594E0
3.619743250E0,-6.083349609E-1,1.690434723E0,9.305998077E0,9.477828928E0
3.629691250E0,-7.035369873E-1,1.766476593E0,9.500294037E0,9.688704280E0
3.639638250E0,-6.780899048E-1,1.847907257E0,9.603878632E0,9.803522424E0
3.649586250E0,-6.324348450E-1,1.920655975E0,9.570947113E0,9.782224790E0
3.659533250E0,-5.956114197E-1,1.925146637E0,9.444759521E0,9.657350825E0
3.669481250E0,-5.264552307E-1,1.938019867E0,9.285490723E0,9.500179686E0
3.679428250E0,-4.340972900E-1,2.019899597E0,9.161398773E0,9.391467528E0
3.689376250E0,-4.246669006E-1,2.084415436E0,9.158404999E0,9.402207816E0
3.699323250E0,-4.014651489E-1,2.171534271E0,9.212891693E0,9.473864507E0
3.709271250E0,-2.565664673E-1,2.243983612E0,9.269923096E0,9.541109108E0
3.719218250E0,-1.276844788E-1,2.279908905E0,9.304800568E0,9.580897742E0
3.729166250E0,5.688171387E-3,2.366279297E0,9.238039398E0,9.536282399E0
3.739113250E0,1.109193420E-1,2.462080078E0,9.192384338E0,9.517041097E0
3.749061250E0,1.889071655E-1,2.539020081E0,9.124275970E0,9.472841225E0
3.759008250E0,2.661465454E-1,2.592009888E0,8.972341919E0,9.343033167E0
3.768955958E0,2.516267395E-1,2.634222107E0,8.893605652E0,9.278936556E0
3.778902958E0,2.874023438E-1,2.647694092E0,8.872649231E0,9.263735126E0
3.788850958E0,3.287164307E-1,2.661615143E0,8.841214600E0,9.239011054E0
3.798797958E0,3.942800903E-1,2.707120514E0,8.835376740E0,9.249207555E0
3.808745958E0,4.415817261E-1,2.758164368E0,8.827143860E0,9.258560030E0
3.818692958E0,3.742218018E-1,2.788401489E0,8.794960785E0,9.233989389E0
3.828640958E0,1.790277100E-1,2.733166351E0,8.789871368E0,9.206741438E0
3.838587958E0,-2.095642090E-3,2.589016113E0,8.866961060E0,9.237207763E0
3.848535958E0,-8.846603394E-2,2.380050659E0,9.092541962E0,9.399297139E0
3.858482958E0,-8.173004150E-2,2.092049561E0,9.490414581E0,9.718606901E0
3.868430958E0,6.586303711E-3,1.781744843E0,9.862241364E0,1.002189916E1
3.878377958E0,2.231858826E-1,1.506018219E0,1.006162674E1,1.017616015E1
3.888325958E0,5.611830139E-1,1.356030121E0,1.016236725E1,1.026778711E1
3.898272958E0,7.984396362E-1,1.385668488E0,1.027553192E1,1.039923744E1
3.908220958E0,7.458988953E-1,1.496438141E0,1.040396484E1,1.053746539E1
3.918167958E0,3.606001282E-1,1.541045380E0,1.064047302E1,1.075753315E1
3.928115958E0,-9.759704590E-2,1.425186310E0,1.107307343E1,1.116483929E1
3.938062958E0,-3.929328918E-1,1.276695099E0,1.161569504E1,1.169225033E1
3.948010958E0,-5.501060486E-1,1.212927704E0,1.217388428E1,1.224652068E1
3.957957958E0,-6.077362061E-1,1.072669373E0,1.257475067E1,1.263504323E1
3.967905958E0,-5.993536377E-1,7.192543030E-1,1.263193176E1,1.266658011E1
3.977852958E0,-4.676275635E-1,2.995271301E-1,1.247311203E1,1.248546818E1
3.987800958E0,-1.603166199E-1,3.817062378E-2,1.224633362E1,1.224744241E1
3.997747958E0,2.040257263E-1,2.140548706E-2,1.199261124E1,1.199436572E1
4.007695958E0,3.902384949E-1,1.315763855E-1,1.169203629E1,1.169928677E1
4.017642958E0,3.671864319E-1,2.703378296E-1,1.139475449E1,1.140387382E1
4.027590958E0,1.698966980E-1,4.062551880E-1,1.113264954E1,1.114135512E1
4.037537958E0,7.649093628E-2,5.391787720E-1,1.077803696E1,1.079178601E1
4.047485958E0,1.333726501E-1,5.990542603E-1,1.041189835E1,1.042997035E1
4.057432958E0,3.281176758E-1,6.423143005E-1,1.012973511E1,1.015538095E1
4.067380958E0,5.936654663E-1,6.741979980E-1,9.972561951E0,1.001294030E1
4.077327958E0,8.830137634E-1,6.920109558E-1,9.848320312E0,9.912013188E0
4.087275958E0,1.111588440E0,7.116201782E-1,9.664352875E0,9.754063185E0
4.097223958E0,1.144819336E0,7.506889343E-1,9.587712250E0,9.684955930E0
4.107170958E0,9.369017029E-1,7.882608032E-1,9.628876648E0,9.706410531E0
4.117118958E0,5.713618469E-1,8.719367981E-1,9.711654510E0,9.767443958E0
4.127065958E0,1.987866211E-1,1.000968475E0,9.735904083E0,9.789243195E0
4.137013958E0,-1.784289551E-1,1.088087311E0,9.645192719E0,9.708012848E0
4.146960958E0,-5.495072937E-1,1.166374512E0,9.470805359E0,9.558166242E0
4.156908958E0,-8.361611938E-1,1.211879883E0,9.317374420E0,9.432989159E0
4.166855958E0,-1.002315674E0,1.229543152E0,9.196875000E0,9.332680367E0
4.176803958E0,-9.005273438E-1,1.240320740E0,9.029523010E0,9.158691546E0
4.186750958E0,-6.253994751E-1,1.204395447E0,8.904233551E0,9.007056568E0
4.196698958E0,-3.715274048E-1,1.102756805E0,8.805438995E0,8.881996458E0
4.206645958E0,-2.465373230E-1,1.041983185E0,8.741970978E0,8.807301868E0
4.216593958E0,-1.890568542E-1,1.049168243E0,8.672964478E0,8.738238342E0
4.226540958E0,-1.658551025E-1,1.099164276E0,8.543932800E0,8.615942068E0
4.236488958E0,-1.886077881E-1,1.111887817E0,8.481662292E0,8.556311276E0
4.246435958E0,-1.257385254E-1,1.176253967E0,8.377478943E0,8.460587273E0
4.256383958E0,6.556365967E-2,1.204844513E0,8.229137421E0,8.317130009E0
4.266330958E0,2.613565063E-1,1.212778015E0,8.129444733E0,8.223564276E0
4.276278958E0,4.361929321E-1,1.211580505E0,8.023465118E0,8.126142018E0
4.286225958E0,5.908213806E-1,1.198557587E0,7.948471069E0,8.060012564E0
4.296173958E0,6.336323547E-1,1.204245758E0,7.986641693E0,8.101737057E0
4.306120958E0,7.267387390E-1,1.281185760E0,8.000113678E0,8.134580813E0
4.316068958E0,7.153623962E-1,1.333127747E0,8.064180450E0,8.204875336E0
4.326015958E0,6.114784241E-1,1.401086426E0,8.252937927E0,8.393326722E0
4.335963958E0,5.394781494E-1,1.505419464E0,8.400980072E0,8.551829664E0
4.345910958E0,4.936734009E-1,1.578916626E0,8.568781128E0,8.727009863E0
4.355858958E0,4.822970581E-1,1.625020752E0,8.656648407E0,8.821046680E0
4.365805958E0,4.438270569E-1,1.642534332E0,8.717122650E0,8.881617465E0
4.375753958E0,3.541635132E-1,1.627565460E0,8.913364563E0,9.067660611E0
4.385700958E0,2.538720703E-1,1.607507172E0,9.084009705E0,9.228638179E0
4.395648958E0,1.363664246E-1,1.537303162E0,9.258247375E0,9.386002412E0
4.405595958E0,-1.122665405E-2,1.466500397E0,9.480235748E0,9.592998452E0
4.415543958E0,-1.776805115E-1,1.386716309E0,9.675878906E0,9.776358478E0
4.425490958E0,-3.329077148E-1,1.273551636E0,9.880353699E0,9.967655217E0
4.435438958E0,-4.477189636E-1,1.284329224E0,1.015697845E1,1.024764193E1
4.445385958E0,-3.305126953E-1,1.375938721E0,1.030576904E1,1.040246709E1
4.455333958E0,-2.694396973E-2,1.448537750E0,1.020128632E1,1.030365130E1
4.465280958E0,2.249821472E-1,1.417252808E0,9.902807007E0,1.000623851E1
4.475228958E0,3.188369751E-1,1.346450043E0,9.725276184E0,9.823216459E0
4.485175958E0,2.374063110E-1,1.301244049E0,9.753267975E0,9.842552211E0
4.495123958E0,-8.696914673E-2,1.274599457E0,1.000654129E1,1.008776665E1
4.505070958E0,-3.983216858E-1,1.287622375E0,1.027388535E1,1.036191834E1
4.515018958E0,-6.256988525E-1,1.270258484E0,1.053554123E1,1.063027209E1
4.524965958E0,-8.177494812E-1,1.180744629E0,1.080797470E1,1.090298992E1
4.534913958E0,-9.475296021E-1,1.078207855E0,1.099882782E1,1.109209439E1
4.544860958E0,-9.687854004E-1,1.044677582E0,1.106813370E1,1.115945697E1
4.554808958E0,-9.541159058E-1,1.046623535E0,1.099673218E1,1.108755503E1
4.564755958E0,-9.568103027E-1,1.071471863E0,1.084839066E1,1.094308538E1
4.574703958E0,-8.620573425E-1,1.172062683E0,1.062355820E1,1.072272645E1
4.584650958E0,-7.262896729E-1,1.318009186E0,1.039303757E1,1.050142251E1
4.594598958E0,-6.099815369E-1,1.423839111E0,1.021745270E1,1.033420219E1
4.604545958E0,-4.519102478E-1,1.451531525E0,1.011746063E1,1.023103984E1
4.614493958E0,-2.121089172E-1,1.445394287E0,1.014560211E1,1.025023888E1
4.624440958E0,1.826202393E-2,1.513802032E0,1.027014313E1,1.038112566E1
4.634388958E0,2.308200073E-1,1.646575928E0,1.028825546E1,1.042174125E1
4.644335958E0,4.194277954E-1,1.751956787E0,1.013242950E1,1.029132644E1
4.654283958E0,4.122427368E-1,1.791175232E0,9.851763153E0,1.002175085E1
4.664230958E0,2.888992310E-1,1.803898773E0,9.544003143E0,9.717278917E0
4.674178958E0,1.880090332E-1,1.880090332E0,9.248218231E0,9.439259902E0
4.684125958E0,1.622625732E-1,1.984872437E0,9.029073944E0,9.246092365E0
4.694073958E0,1.374142456E-1,2.087109833E0,8.858578491E0,9.102160349E0
4.704020958E0,5.029541016E-2,2.131567383E0,8.685538330E0,8.943415747E0
4.713968958E0,-7.903564453E-2,2.201921082E0,8.579259338E0,8.857674293E0
4.723915958E0,-1.627116394E-1,2.343227234E0,8.530460815E0,8.847934825E0
4.733863958E0,-1.904040527E-1,2.456242218E0,8.512947235E0,8.862259879E0
4.743810958E0,-2.689906311E-1,2.493963776E0,8.545279999E0,8.905841989E0
4.753758958E0,-3.671864319E-1,2.557132416E0,8.554710388E0,8.936264426E0
4.763705833E0,-3.444337463E-1,2.603236542E0,8.561147003E0,8.954815079E0
4.773653833E0,-2.905458069E-1,2.631078644E0,8.543633423E0,8.944309015E0
4.783600833E0,-2.643502808E-1,2.622995453E0,8.605454865E0,9.000213311E0
4.793548833E0,-1.772314453E-1,2.551444244E0,8.747359772E0,9.113593237E0
4.803496833E0,-9.220825195E-2,2.458936615E0,8.865314484E0,9.200471321E0
4.813443833E0,7.484436035E-4,2.359094238E0,9.008117523E0,9.311901390E0
4.823390833E0,9.849517822E-2,2.289488983E0,9.211993561E0,9.492749152E0
4.833338833E0,1.454974365E-1,2.237996063E0,9.442514191E0,9.705198098E0
4.843286833E0,2.179467773E-1,2.213447113E0,9.554481354E0,9.809942042E0
4.853233833E0,2.543211365E-1,2.217788086E0,9.595046997E0,9.851303980E0
4.863181833E0,2.739303589E-1,2.267634430E0,9.608369293E0,9.876131035E0
4.873128833E0,3.059637451E-1,2.368824005E0,9.557774506E0,9.851700081E0
4.883076833E0,2.938389587E-1,2.405048676E0,9.572294312E0,9.874179401E0
4.893023833E0,3.273692322E-1,2.450104980E0,9.679471436E0,9.990112727E0
4.902971833E0,3.984713745E-1,2.534379730E0,9.794731750E0,1.012514840E1
4.912918833E0,4.682263184E-1,2.620151367E0,9.879006500E0,1.023128528E1
4.922866833E0,4.805007935E-1,2.593207397E0,1.003528152E1,1.037605324E1
4.932813833E0,4.439767456E-1,2.515369263E0,1.014440460E1,1.046102971E1
4.942761833E0,3.866459656E-1,2.506687317E0,1.036429733E1,1.067012819E1
4.952708833E0,3.305126953E-1,2.502346344E0,1.055530014E1,1.085289532E1
4.962656833E0,2.291734314E-1,2.464774475E0,1.060349991E1,1.088861075E1
4.972603833E0,1.221459961E-1,2.408641205E0,1.057460999E1,1.084614440E1
4.982551833E0,2.260299683E-2,2.421664124E0,1.043944107E1,1.071666449E1
4.992498833E0,8.726852417E-2,2.493664398E0,1.014365616E1,1.044603935E1
5.002446833E0,3.391946411E-1,2.575394440E0,9.882149963E0,1.021785679E1
5.012393833E0,5.026547241E-1,2.538870392E0,9.820777588E0,1.015609162E1
5.022341833E0,5.357359314E-1,2.317780151E0,9.876611481E0,1.015906355E1
5.032288833E0,5.837860107E-1,2.149979095E0,1.004486160E1,1.028894848E1
5.042236833E0,5.565426636E-1,2.090702362E0,1.029065048E1,1.051561997E1
5.052183833E0,4.327500916E-1,2.046993256E0,1.048255142E1,1.068930954E1
5.062131833E0,1.886077881E-1,1.922901306E0,1.070708450E1,1.088001750E1
5.072078833E0,-1.287322998E-2,1.741478577E0,1.098415833E1,1.112135996E1
5.082026833E0,-1.814227295E-1,1.590891724E0,1.123713226E1,1.135063840E1
5.091973833E0,-2.483335876E-1,1.493893433E0,1.137888748E1,1.147921894E1
5.101921833E0,-2.067201233E-1,1.427731018E0,1.140343643E1,1.149432519E1
5.111868833E0,-1.020877075E-1,1.425485687E0,1.125569366E1,1.134605972E1
5.121816833E0,4.340972900E-3,1.440304871E0,1.087398743E1,1.096896073E1
5.131763833E0,7.664062500E-2,1.377734985E0,1.039393570E1,1.048512884E1
5.141711833E0,1.378633118E-1,1.296004944E0,1.012629227E1,1.020982028E1
5.151658833E0,2.499801636E-1,1.214274902E0,1.018826340E1,1.026341389E1
5.161606833E0,4.402345276E-1,1.169068909E0,1.038645126E1,1.046130481E1
5.171553833E0,6.065386963E-1,1.124761047E0,1.054152878E1,1.061870075E1
5.181501833E0,7.879614258E-1,1.094074860E0,1.052431458E1,1.061032894E1
5.191448833E0,1.030008087E0,1.082698517E0,1.029005173E1,1.039799583E1
5.201396833E0,1.184037781E0,1.105151825E0,1.003977219E1,1.016957873E1
5.211343833E0,1.285526733E0,1.149160309E0,9.909992065E0,1.005888121E1
5.221291833E0,1.319805450E0,1.163530426E0,9.841135254E0,9.997181231E0
5.231238833E0,1.207538910E0,1.196162567E0,9.828711090E0,9.974593566E0
5.241186833E0,1.034648438E0,1.280587006E0,9.742191010E0,9.880318119E0
5.251133833E0,7.629634094E-1,1.406774597E0,9.549391937E0,9.682562383E0
5.261081833E0,5.224136353E-1,1.522184601E0,9.310339050E0,9.448405961E0
5.271028833E0,4.635859680E-1,1.596729584E0,9.020990753E0,9.172934726E0
5.280976833E0,4.978646851E-1,1.655257874E0,8.741521912E0,8.910777362E0
5.290923833E0,5.632786560E-1,1.659898224E0,8.533155212E0,8.711330716E0
5.300871833E0,5.469625854E-1,1.636247406E0,8.298443298E0,8.475885489E0
5.310818833E0,4.634362793E-1,1.640887756E0,8.080197144E0,8.258139723E0
5.320766833E0,3.749702454E-1,1.645378418E0,7.933202820E0,8.110707725E0
5.330713833E0,3.376977539E-1,1.631157990E0,7.892038422E0,8.065915113E0
5.340661833E0,2.499801636E-1,1.649270325E0,7.955805817E0,8.128802426E0
5.350608833E0,2.198927307E-1,1.643881531E0,8.052205353E0,8.221235330E0
5.360556833E0,2.668949890E-1,1.626817017E0,8.134534149E0,8.299904359E0
5.370503833E0,3.496728516E-1,1.617686005E0,8.170160065E0,8.336107881E0
5.380451833E0,2.996768188E-1,1.616039429E0,8.234376526E0,8.396805726E0
5.390399833E0,2.143542480E-1,1.689985657E0,8.310568085E0,8.483368503E0
5.400346833E0,2.050735474E-1,1.761985931E0,8.303682404E0,8.491041811E0
5.410294833E0,1.375639343E-1,1.818268890E0,8.263715515E0,8.462506704E0
5.420241833E0,5.239105225E-3,1.858385468E0,8.163873138E0,8.372720503E0
5.430189833E0,-1.269360352E-1,1.936972046E0,8.090825043E0,8.320422065E0
5.440136833E0,-1.959425354E-1,2.000739441E0,8.126301270E0,8.371267772E0
5.450084833E0,-1.700463867E-1,2.104324036E0,8.270002441E0,8.535223243E0
5.460031833E0,1.781295776E-2,2.206262054E0,8.440348206E0,8.723954802E0
5.469979833E0,3.153941345E-1,2.273621979E0,8.588839417E0,8.890275186E0
5.479926833E0,5.610333252E-1,2.247127075E0,8.828640747E0,9.127389327E0
5.489874833E0,6.798861694E-1,2.255809021E0,9.119785309E0,9.419203980E0
5.499821833E0,6.619235229E-1,2.244282990E0,9.439670105E0,9.725344240E0
5.509769833E0,5.788462830E-1,2.245779877E0,9.765093384E0,1.003671456E1
5.519716833E0,4.541555786E-1,2.238894196E0,1.003423370E1,1.029100338E1
5.529664833E0,3.294648743E-1,2.229613495E0,1.023855881E1,1.048369257E1
5.539611833E0,1.688488770E-1,2.206860809E0,1.034738251E1,1.058144930E1
5.549559833E0,3.577560425E-2,2.189047852E0,1.029109955E1,1.052140391E1
5.559506833E0,-6.870712280E-2,2.173480225E0,1.014709900E1,1.037749272E1
5.569454833E0,-1.839674377E-1,2.139500885E0,1.013183075E1,1.035689637E1
5.579401833E0,-1.583706665E-1,2.163900146E0,1.013901581E1,1.036856724E1
5.589349833E0,2.335144043E-2,2.265239410E0,1.008108627E1,1.033248060E1
5.599296833E0,1.435514832E-1,2.250270538E0,1.007464966E1,1.032389899E1
5.609244833E0,2.195933533E-1,2.105671234E0,1.013227982E1,1.035109496E1
5.619191833E0,1.851649475E-1,2.013163605E0,1.017149826E1,1.037046241E1
5.629139833E0,1.835183716E-1,2.071093140E0,1.008378067E1,1.029590882E1
5.639086833E0,2.173480225E-1,2.192939758E0,9.926906891E0,1.016856457E1
5.649034833E0,4.819976807E-2,2.231409760E0,9.801467743E0,1.005237697E1
5.658981833E0,-1.603166199E-1,2.143692169E0,9.685758362E0,9.921443069E0
5.668929833E0,-2.959346008E-1,2.009870453E0,9.589508514E0,9.802337990E0
5.678876833E0,-3.695814514E-1,1.930535431E0,9.636510773E0,9.834932505E0
5.688824833E0,-4.192781067E-1,1.883832550E0,9.766141205E0,9.955005436E0
5.698771833E0,-5.312452698E-1,1.784588928E0,9.868228912E0,1.004235635E1
5.708719833E0,-5.060975647E-1,1.677561493E0,9.863887939E0,1.001831486E1
5.718666833E0,-2.656974792E-1,1.677711182E0,9.803563385E0,9.949631400E0
5.728614833E0,-6.646179199E-2,1.708397369E0,9.731413422E0,9.880457779E0
5.738561833E0,6.212081909E-2,1.692530365E0,9.602082367E0,9.750307883E0
5.748509833E0,1.245410156E-1,1.648821259E0,9.512119446E0,9.654767649E0
5.758456833E0,1.797761536E-1,1.616638184E0,9.581724701E0,9.718810973E0
5.768404708E0,2.070195007E-1,1.615290985E0,9.760602722E0,9.895523611E0
5.778351708E0,2.799179077E-1,1.713337097E0,9.906399536E0,1.005736694E1
5.788299708E0,5.083428955E-1,1.826052704E0,9.823022919E0,1.000423212E1
5.798247708E0,6.469546509E-1,1.886826324E0,9.477092285E0,9.684727259E0
5.808194708E0,6.918612671E-1,1.908980255E0,8.979676666E0,9.206382061E0
5.818142708E0,6.578819275E-1,1.983824615E0,8.564889221E0,8.816217789E0
5.828089708E0,5.310955811E-1,2.092947693E0,8.337961121E0,8.613018531E0
5.838037708E0,3.712280273E-1,2.220632172E0,8.313861237E0,8.613321435E0
5.847984708E0,1.968406677E-1,2.290387115E0,8.435258789E0,8.742894842E0
5.857932708E0,4.819976807E-2,2.335593109E0,8.522677002E0,8.837043718E0
5.867879708E0,-2.784210205E-2,2.379601593E0,8.585546265E0,8.909258307E0
5.877827708E0,-1.387614441E-1,2.437381439E0,8.739575958E0,9.074154007E0
5.887774708E0,-2.477348328E-1,2.495610352E0,8.913364563E0,9.259455244E0
5.897722708E0,-2.447410583E-1,2.531086578E0,9.058412933E0,9.408567496E0
5.907669708E0,-2.165995789E-1,2.548300781E0,9.176667023E0,9.526382834E0
5.917617708E0,-1.270857239E-1,2.563868408E0,9.167086945E0,9.519719273E0
5.927564708E0,9.430389404E-3,2.561323700E0,9.133556671E0,9.485901406E0
5.937512708E0,1.035845947E-1,2.575394440E0,9.062155151E0,9.421573238E0
5.947459708E0,1.290316772E-1,2.618953857E0,8.992849274E0,9.367331879E0
5.957407708E0,1.040336609E-1,2.667453003E0,8.986861725E0,9.374956650E0
5.967354708E0,1.064286804E-1,2.662213898E0,9.021888885E0,9.407081852E0
5.977302708E0,1.432521057E-1,2.715952148E0,9.068142700E0,9.467213385E0
5.987249708E0,1.887574768E-1,2.809806976E0,9.126670990E0,9.551270491E0
5.997197708E0,2.180964661E-1,2.858306122E0,9.060358887E0,9.503030207E0
6.007144708E0,2.755769348E-1,2.864593048E0,9.019942932E0,9.467904017E0
6.017092708E0,3.070115662E-1,2.861299896E0,9.027127991E0,9.474720733E0
6.027039708E0,2.932402039E-1,2.880909119E0,9.081464996E0,9.531979524E0
6.036987708E0,3.396437073E-1,2.952759705E0,9.117689667E0,9.589912021E0
6.046934708E0,4.355941772E-1,3.095263367E0,9.107211456E0,9.628691402E0
6.056882708E0,5.536985779E-1,3.166365509E0,9.108858032E0,9.659386487E0
6.066829708E0,5.483097839E-1,3.132386169E0,9.265731812E0,9.796237683E0
6.076777708E0,4.734654236E-1,2.993924103E0,9.590406647E0,1.005801425E1
6.086724708E0,3.457809448E-1,2.827769623E0,1.000399658E1,1.040172068E1
6.096672708E0,2.639012146E-1,2.739004211E0,1.037432648E1,1.073305352E1
6.106619708E0,1.902543640E-1,2.591411133E0,1.067071014E1,1.098251626E1
6.116567708E0,1.169068909E-1,2.325114899E0,1.093521011E1,1.118027937E1
6.126515708E0,1.736389160E-2,2.096091156E0,1.101574265E1,1.121340651E1
6.136462708E0,4.490661621E-2,1.972148895E0,1.091081085E1,1.108770406E1
6.146410708E0,2.276765442E-1,2.008074188E0,1.053973251E1,1.073173611E1
6.156357708E0,3.582051086E-1,2.245480499E0,1.010503647E1,1.035771479E1
6.166305708E0,3.873944092E-1,2.554288330E0,9.800419922E0,1.013522047E1
6.176252708E0,2.028282166E-1,2.685565338E0,9.718839569E0,1.008510005E1
6.186200708E0,-8.786727905E-2,2.593656464E0,9.724976807E0,1.006528432E1
6.196147708E0,-2.743794250E-1,2.594853973E0,9.807006226E0,1.014819798E1
6.206095708E0,-3.056643677E-1,2.694696350E0,1.006192612E1,1.042099690E1
6.216042708E0,-3.475772095E-1,2.670596466E0,1.041474243E1,1.075731171E1
6.225990708E0,-4.064048767E-1,2.365081787E0,1.084749252E1,1.110976466E1
6.235937708E0,-3.884422302E-1,1.884431305E0,1.127694946E1,1.143991075E1
6.245885708E0,-2.151026917E-1,1.482517090E0,1.166913391E1,1.176489746E1
6.255832708E0,5.643264771E-2,1.166823578E0,1.201805832E1,1.207470031E1
6.265780708E0,3.481759644E-1,9.119036865E-1,1.205383392E1,1.209329182E1
6.275727708E0,5.510041809E-1,8.437953186E-1,1.164683029E1,1.169034867E1
6.285675708E0,6.083349609E-1,9.186396790E-1,1.102741837E1,1.108232494E1
6.295622708E0,6.008505249E-1,1.014590149E0,1.043315414E1,1.049957713E1
6.305570708E0,6.014492798E-1,1.082548828E0,1.011416748E1,1.018970250E1
6.315517708E0,6.259982300E-1,1.114881592E0,1.006342300E1,1.014432439E1
6.325465708E0,7.652087402E-1,1.150058441E0,1.017703674E1,1.027035811E1
6.335412708E0,9.548643494E-1,1.181343384E0,1.029544052E1,1.040689356E1
6.345360708E0,1.071920929E0,1.173409882E0,1.032717453E1,1.044875299E1
6.355307708E0,1.088237000E0,1.118773499E0,1.020428009E1,1.032294755E1
6.365255708E0,9.822573853E-1,1.103205872E0,1.001357666E1,1.012193708E1
6.375202708E0,8.029302979E-1,1.143023071E0,9.764494629E0,9.863901569E0
6.385150708E0,5.623805237E-1,1.209484863E0,9.465715942E0,9.559231339E0
6.395097708E0,2.748284912E-1,1.326242065E0,9.180708618E0,9.280078634E0
6.405045708E0,-3.293151855E-3,1.488953705E0,8.888067169E0,9.011921659E0
6.414993708E0,-2.561174011E-1,1.631756744E0,8.651708679E0,8.807967374E0
6.424940708E0,-4.513114929E-1,1.724264374E0,8.418942719E0,8.605542760E0
6.434888708E0,-5.676196289E-1,1.794468384E0,8.250243530E0,8.462199899E0
6.444835708E0,-5.771997070E-1,1.817071381E0,8.191715240E0,8.410654343E0
6.454783708E0,-4.519102478E-1,1.833686829E0,8.222551117E0,8.436644898E0
6.464730708E0,-2.703378296E-1,1.818119202E0,8.355474701E0,8.555267234E0
6.474678708E0,-7.259902954E-2,1.780697021E0,8.518635406E0,8.703062776E0
6.484625708E0,6.301895142E-2,1.767973480E0,8.564589844E0,8.745393119E0
6.494573708E0,1.317260742E-1,1.794767761E0,8.509654083E0,8.697859259E0
6.504520708E0,1.716929626E-1,1.917811890E0,8.406668243E0,8.624358056E0
6.514468708E0,1.841171265E-1,2.107317810E0,8.225844269E0,8.493479935E0
6.524415708E0,9.175918579E-2,2.242486725E0,8.154592438E0,8.457809662E0
6.534363708E0,-7.499404907E-2,2.285746765E0,8.054450684E0,8.372839315E0
6.544310708E0,-1.866618347E-1,2.298919373E0,8.052205353E0,8.376030323E0
6.554258708E0,-1.498384094E-1,2.302212524E0,8.109685822E0,8.431467143E0
6.564205708E0,-4.490661621E-2,2.286495209E0,8.189619598E0,8.502937499E0
6.574153708E0,8.098159790E-2,2.198029175E0,8.281827850E0,8.568930086E0
6.584100708E0,1.092727661E-1,2.115700378E0,8.448431396E0,8.710001245E0
6.594048708E0,1.902543640E-1,2.095791779E0,8.613687744E0,8.867026359E0
6.603995708E0,2.501298523E-1,2.095193024E0,8.835376740E0,9.083847251E0
6.613943708E0,2.628533936E-1,2.095043335E0,9.044641571E0,9.287832881E0
6.623890708E0,2.877017212E-1,2.143991547E0,9.252110138E0,9.501632178E0
6.633838708E0,2.395019531E-1,2.221679993E0,9.484127655E0,9.743813450E0
6.643785708E0,1.454974365E-1,2.215542755E0,9.684860229E0,9.936111758E0
6.653733708E0,-2.544708252E-3,2.176473999E0,9.889484711E0,1.012615195E1
6.663680708E0,-1.986369324E-1,2.151026917E0,1.000474503E1,1.023529660E1
6.673628708E0,-2.653981018E-1,2.130369873E0,9.945168915E0,1.017424674E1
6.683576708E0,-2.966830444E-1,2.014810181E0,9.745184784E0,9.955707276E0
6.693523708E0,-2.670446777E-1,1.857187958E0,9.530381470E0,9.713322342E0
6.703471708E0,-1.760339355E-1,1.777403870E0,9.393565979E0,9.561863535E0
6.713418708E0,-2.294728088E-1,1.849853210E0,9.556127930E0,9.736231082E0
6.723366708E0,-2.683918762E-1,2.027084656E0,9.783654785E0,9.995049142E0
6.733313708E0,-3.498225403E-1,2.094893646E0,9.916728058E0,1.014161972E1
6.743261708E0,-6.966513062E-1,1.936223602E0,1.018976028E1,1.039545572E1
6.753208708E0,-9.996212769E-1,1.785936127E0,1.040755737E1,1.060688743E1
6.763156708E0,-9.490264893E-1,1.766326904E0,1.072399933E1,1.090984526E1
6.773103875E0,-7.578739929E-1,1.791324921E0,1.096604599E1,1.113720713E1
6.783051875E0,-6.920109558E-1,1.643881531E0,1.114582214E1,1.128762937E1
6.792998875E0,-7.653584290E-1,1.364412689E0,1.134685410E1,1.145419108E1
6.802946875E0,-8.367599487E-1,1.156195679E0,1.149624344E1,1.158449692E1
6.812893875E0,-8.593629456E-1,1.102307739E0,1.141795624E1,1.150318702E1
6.822841875E0,-8.225395203E-1,1.137185211E0,1.113145203E1,1.121958046E1
6.832788875E0,-8.074209595E-1,1.211131439E0,1.062774948E1,1.072696728E1
6.842736875E0,-6.691085815E-1,1.368454285E0,9.880952454E0,9.997679471E0
6.852683875E0,-5.721102905E-1,1.537303162E0,9.273066559E0,9.417025783E0
6.862631875E0,-5.219645691E-1,1.647174683E0,8.927135925E0,9.092820645E0
6.872578875E0,-5.179229736E-1,1.692380676E0,8.869954834E0,9.044804880E0
6.882526875E0,-4.812492371E-1,1.722617798E0,8.963061218E0,9.139774576E0
6.892474875E0,-3.064128113E-1,1.728305969E0,9.092841339E0,9.260706990E0
6.902421875E0,-1.213975525E-1,1.710792389E0,9.075627136E0,9.236263091E0
6.912369875E0,-8.232879639E-3,1.729653168E0,8.940907288E0,9.106678373E0
6.922316875E0,3.936813354E-2,1.775158539E0,8.787775726E0,8.965363345E0
6.932264875E0,1.347198486E-3,1.812580719E0,8.683592377E0,8.870751222E0
6.942211875E0,-5.807922363E-2,1.895657959E0,8.625962219E0,8.831993914E0
6.952159875E0,-2.210902405E-1,2.021845551E0,8.699309692E0,8.933908968E0
6.962106875E0,-4.324507141E-1,2.114652557E0,8.844358063E0,9.103924352E0
6.972054875E0,-5.861810303E-1,2.148931274E0,8.952433319E0,9.225376749E0
6.982001875E0,-6.950047302E-1,2.181264038E0,9.072783051E0,9.357154304E0
6.991949875E0,-7.216493225E-1,2.184856567E0,9.203012238E0,9.486295916E0
7.001896875E0,-7.084767151E-1,2.189646606E0,9.341474304E0,9.620791739E0
7.011844875E0,-7.342231750E-1,2.192041626E0,9.442214813E0,9.721087940E0
7.021791875E0,-8.072712708E-1,2.180665283E0,9.494605865E0,9.775199667E0
7.031739875E0,-7.813751221E-1,2.172881470E0,9.485175476E0,9.762198255E0
7.041686875E0,-6.553372192E-1,2.207010498E0,9.348809052E0,9.628114711E0
7.051634875E0,-5.465135193E-1,2.296973419E0,9.191935272E0,9.490333923E0
7.061581875E0,-4.628375244E-1,2.392923889E0,9.007219391E0,9.331147007E0
7.071529875E0,-2.900967407E-1,2.462379456E0,8.828940125E0,9.170477219E0
7.081477875E0,-1.089733887E-1,2.503394165E0,8.745713196E0,9.097601709E0
7.091424875E0,4.206253052E-2,2.539319458E0,8.790619812E0,9.150131652E0
7.101372875E0,1.438508606E-1,2.617157593E0,8.964707794E0,9.340031733E0
7.111319875E0,2.384541321E-1,2.657573547E0,9.111103363E0,9.493774909E0
7.121267875E0,3.375480652E-1,2.690205688E0,9.116791534E0,9.511415942E0
7.131214875E0,4.201762390E-1,2.818039856E0,9.069639587E0,9.506642885E0
7.141162875E0,4.231700134E-1,2.980152740E0,8.929830322E0,9.423494723E0
7.151109875E0,2.357597351E-1,3.068469086E0,8.747359772E0,9.272938486E0
7.161057875E0,9.580078125E-2,3.144510956E0,8.636290741E0,9.191444103E0
7.171004875E0,5.777984619E-2,3.255579987E0,8.701704712E0,9.290952828E0
7.180952875E0,9.445358276E-2,3.257226562E0,8.831784210E0,9.413759010E0
7.190899875E0,1.225950623E-1,3.169508972E0,9.103020172E0,9.639802536E0
7.200847875E0,1.751358032E-1,3.057392120E0,9.431586914E0,9.916307319E0
7.210794875E0,2.207908630E-1,2.927312622E0,9.774823151E0,1.020612931E1
7.220742875E0,1.442999268E-1,2.731669464E0,1.026954437E1,1.062762354E1
7.230689875E0,1.107696533E-1,2.515668640E0,1.082324295E1,1.111231059E1
7.240637875E0,1.001417542E-1,2.305505676E0,1.121243362E1,1.144744743E1
7.250584875E0,1.504371643E-1,2.105521545E0,1.139670044E1,1.159054068E1
7.260532875E0,2.073188782E-1,1.996248779E0,1.141645935E1,1.159152856E1
7.270479875E0,2.788700867E-1,1.982028351E0,1.122650436E1,1.140353477E1
7.280427875E0,3.959266663E-1,2.109712830E0,1.079989151E1,1.101114448E1
7.290375875E0,4.893324280E-1,2.313439178E0,1.033361115E1,1.060070594E1
7.300322875E0,4.969665527E-1,2.407743073E0,1.015203873E1,1.044548193E1
7.310270875E0,3.932322693E-1,2.250270538E0,1.030397278E1,1.055415578E1
7.320217875E0,1.935475159E-1,2.103725281E0,1.066292633E1,1.087019405E1
7.330165875E0,9.355545044E-2,2.018552399E0,1.114462463E1,1.132633942E1
7.340112875E0,6.496490479E-2,1.911824341E0,1.157453064E1,1.173154092E1
7.350060875E0,-2.155517578E-2,1.667981415E0,1.197390015E1,1.208953727E1
7.360007875E0,1.481918335E-2,1.339863739E0,1.220756424E1,1.228088267E1
7.369955875E0,1.558259583E-1,1.054257660E0,1.229049179E1,1.233660932E1
7.379902875E0,2.076182556E-1,9.060658264E-1,1.221415054E1,1.224947077E1
7.389850875E0,2.760260010E-1,8.422984314E-1,1.191327621E1,1.194620472E1
7.399797875E0,2.868035889E-1,8.306227112E-1,1.131497040E1,1.134904161E1
7.409745875E0,2.812651062E-1,9.202862549E-1,1.052596115E1,1.056985785E1
7.419692875E0,3.438349915E-1,1.065035248E0,9.781409454E0,9.845226940E0
7.429640875E0,4.171824646E-1,1.188079376E0,9.129814453E0,9.216240327E0
7.439587875E0,4.987628174E-1,1.206341400E0,8.701405334E0,8.798777115E0
7.449535875E0,6.150709534E-1,1.180145874E0,8.482710114E0,8.586467692E0
7.459483875E0,7.435038757E-1,1.161883850E0,8.504714355E0,8.615853896E0
7.469430875E0,9.002279663E-1,1.182391205E0,8.716823273E0,8.842593925E0
7.479378875E0,9.725276184E-1,1.182690582E0,8.918304291E0,9.048796517E0
7.489325875E0,9.490264893E-1,1.148262177E0,9.082363129E0,9.203720840E0
7.499273875E0,9.421408081E-1,1.135388947E0,9.126970367E0,9.245448905E0
7.509220875E0,8.628057861E-1,1.177750854E0,9.081015930E0,9.197629109E0
7.519168875E0,7.797285461E-1,1.226998444E0,8.966204681E0,9.083299410E0
7.529115875E0,6.674620056E-1,1.287322998E0,8.938961334E0,9.055812264E0
7.539063875E0,5.049000549E-1,1.417701874E0,8.950038300E0,9.075681144E0
7.549010875E0,3.023712158E-1,1.571282501E0,8.956175537E0,9.097990839E0
7.558958875E0,2.032772827E-1,1.704355774E0,8.910071411E0,9.073892374E0
7.568905875E0,2.019300842E-1,1.761985931E0,8.790919189E0,8.968033808E0
7.578853875E0,2.320175171E-1,1.767973480E0,8.694369965E0,8.875338384E0
7.588800875E0,3.173400879E-1,1.765877838E0,8.531957703E0,8.718562468E0
7.598748875E0,5.078938293E-1,1.778002625E0,8.373287659E0,8.575033276E0
7.608696875E0,6.331832886E-1,1.826651459E0,8.266110535E0,8.489178994E0
7.618643875E0,7.042854309E-1,1.891167297E0,8.213270416E0,8.457561271E0
7.628591875E0,6.635700989E-1,1.934427338E0,8.241112518E0,8.491070012E0
7.638538875E0,6.500981140E-1,2.016905823E0,8.292904816E0,8.559369541E0
7.648486875E0,7.544311523E-1,2.112257538E0,8.337512054E0,8.633939166E0
7.658433875E0,7.978408813E-1,2.220033417E0,8.319100342E0,8.647111017E0
7.668381875E0,7.509883118E-1,2.311642914E0,8.328530731E0,8.675949547E0
7.678328875E0,7.155120850E-1,2.433788910E0,8.292306061E0,8.671656463E0
7.688276875E0,6.679110718E-1,2.482288055E0,8.291407928E0,8.680743322E0
7.698223875E0,5.843847656E-1,2.492466888E0,8.312963104E0,8.698232712E0
7.708171875E0,5.547463989E-1,2.502945099E0,8.369844818E0,8.753672373E0
7.718118875E0,5.322930908E-1,2.523302765E0,8.553512878E0,8.933810796E0
7.728066875E0,5.204676819E-1,2.531236267E0,8.813971252E0,9.184994986E0
7.738013875E0,5.691165161E-1,2.520458679E0,8.995693359E0,9.359439330E0
7.747961875E0,6.568341064E-1,2.450254669E0,9.087302856E0,9.434736466E0
7.757908875E0,7.186555481E-1,2.342329102E0,9.110354919E0,9.434062655E0
7.767857583E0,7.247927856E-1,2.296823730E0,9.207502899E0,9.517291288E0
7.777805583E0,6.917115784E-1,2.274071045E0,9.343869324E0,9.641460365E0
7.787752583E0,6.086343384E-1,2.184257813E0,9.520352325E0,9.786650415E0
7.797700583E0,5.516029358E-1,2.098486176E0,9.793234863E0,1.003072077E1
7.807647583E0,4.288581848E-1,2.043700104E0,9.972412262E0,1.018870138E1
7.817595583E0,2.122586060E-1,1.927990723E0,1.012644196E1,1.031052999E1
7.827542583E0,-2.125579834E-2,1.785037994E0,1.028660889E1,1.044036086E1
7.837490583E0,-1.017883301E-1,1.717079315E0,1.041549088E1,1.055657011E1
7.847437583E0,-2.245330811E-2,1.631008301E0,1.043644730E1,1.056314936E1
7.857385583E0,1.107696533E-1,1.575324097E0,1.032642609E1,1.044648226E1
7.867332583E0,1.794767761E-1,1.642384644E0,1.023062531E1,1.036317197E1
7.877280583E0,1.273851013E-1,1.760339355E0,1.013826736E1,1.029074763E1
7.887227583E0,1.158590698E-1,1.748663635E0,9.861343231E0,1.001585434E1
7.897175583E0,6.242019653E-2,1.717528381E0,9.507628784E0,9.661718539E0
7.907123583E0,3.143463135E-2,1.652413788E0,9.390123138E0,9.534457091E0
7.917070583E0,3.158432007E-2,1.522034912E0,9.639654236E0,9.759125044E0
7.927018583E0,-6.436614990E-3,1.377734985E0,1.020457947E1,1.029716647E1
7.936965583E0,-1.785786438E-1,1.196611633E0,1.104732697E1,1.111337945E1
7.946913583E0,-2.971321106E-1,9.491761780E-1,1.183214493E1,1.187387369E1
7.956860583E0,-1.740879822E-1,6.641688538E-1,1.226369751E1,1.228290289E1
7.966808583E0,7.050338745E-2,3.734733582E-1,1.248029709E1,1.248608299E1
7.976755583E0,3.173400879E-1,3.089575195E-1,1.229617996E1,1.230415382E1
7.986703583E0,5.715115356E-1,4.984634399E-1,1.170191574E1,1.172646252E1
7.996650583E0,7.063810730E-1,7.439529419E-1,1.085737198E1,1.090573090E1
8.006598583E0,6.021977234E-1,9.056167603E-1,1.003453308E1,1.009329668E1
8.016545583E0,3.784130859E-1,1.000070343E0,9.524244232E0,9.584078743E0
8.026493583E0,3.082090759E-1,1.173559570E0,9.231752472E0,9.311148619E0
8.036440583E0,3.397933960E-1,1.366208954E0,9.081015930E0,9.189496003E0
8.046388583E0,4.532574463E-1,1.453477478E0,8.988807678E0,9.116836215E0
8.056336583E0,7.397616577E-1,1.403631134E0,8.855135651E0,8.996157794E0
8.066283583E0,1.063987427E0,1.418150940E0,8.622220001E0,8.802607516E0
8.076231583E0,1.190025330E0,1.427581329E0,8.451574860E0,8.653511793E0
8.086178583E0,1.144070892E0,1.424587555E0,8.208929443E0,8.409807995E0
8.096126583E0,1.027463379E0,1.494192810E0,8.095166016E0,8.295782421E0
8.106073583E0,8.970845032E-1,1.612596588E0,8.131091309E0,8.337857892E0
8.116021583E0,7.200027466E-1,1.725761261E0,8.212521973E0,8.422717675E0
8.125968583E0,5.393284607E-1,1.834135895E0,8.345744934E0,8.561914983E0
8.135916583E0,4.369413757E-1,1.938169556E0,8.427924042E0,8.658944661E0
8.145863583E0,3.189866638E-1,2.025737457E0,8.549620972E0,8.792120535E0
8.155811583E0,1.827699280E-1,2.125430145E0,8.624914398E0,8.884818880E0
8.165758583E0,-2.290237427E-2,2.238295441E0,8.682843933E0,8.966731275E0
8.175706583E0,-3.061134338E-1,2.322869568E0,8.761729889E0,9.069583183E0
8.185653583E0,-4.968168640E-1,2.399959259E0,8.779842224E0,9.115495649E0
8.195601583E0,-5.049000549E-1,2.467768250E0,8.695866852E0,9.053336650E0
8.205549583E0,-4.450245667E-1,2.447560272E0,8.665030975E0,9.015062948E0
8.215496583E0,-3.781137085E-1,2.369123383E0,8.709039459E0,9.033442527E0
8.225444583E0,-2.793191528E-1,2.282752991E0,8.874146118E0,9.167303297E0
8.235391583E0,-2.002835083E-1,2.247127075E0,9.203461304E0,9.475937608E0
8.245339583E0,-1.712438965E-1,2.226919098E0,9.548793182E0,9.806525602E0
8.255286583E0,-1.588197327E-1,2.177821198E0,9.810449066E0,1.005052435E1
8.265234583E0,-1.227447510E-1,2.157463531E0,9.848919067E0,1.008319999E1
8.275181583E0,-4.595443726E-2,2.174677734E0,9.801467743E0,1.003992555E1
8.285129583E0,2.320175171E-2,2.246528320E0,9.738299103E0,9.994093117E0
8.295076583E0,6.511459351E-2,2.323168945E0,9.657616882E0,9.933323598E0
8.305024583E0,8.412506104E-2,2.434088287E0,9.581425323E0,9.886130388E0
8.314972583E0,1.311273193E-1,2.577639771E0,9.439071350E0,9.785575564E0
8.324919583E0,1.172062683E-1,2.661016388E0,9.364226990E0,9.735681416E0
8.334867583E0,5.837860107E-2,2.682870941E0,9.332193604E0,9.710357460E0
8.344814583E0,6.631210327E-2,2.708467712E0,9.324110413E0,9.709749205E0
8.354762583E0,1.293310547E-1,2.730022888E0,9.337881775E0,9.729634502E0
8.364709583E0,1.743873596E-1,2.743794250E0,9.381441193E0,9.776004127E0
8.374657583E0,2.025288391E-1,2.757415924E0,9.426198120E0,9.823317744E0
8.384604583E0,2.335144043E-1,2.699935455E0,9.529034271E0,9.906900352E0
8.394552583E0,2.445913696E-1,2.617906036E0,9.637109528E0,9.989351180E0
8.404499583E0,3.109034729E-1,2.578238525E0,9.718989258E0,1.005995661E1
8.414447583E0,5.258564758E-1,2.678679657E0,9.661508789E0,1.003975108E1
8.424394583E0,7.578739929E-1,2.794089661E0,9.510323181E0,9.941205009E0
8.434342583E0,9.015751648E-1,2.745889893E0,9.476942596E0,9.907834781E0
8.444290583E0,7.601193237E-1,2.489323425E0,9.675130463E0,1.001911483E1
8.454237583E0,5.816903687E-1,2.189197540E0,1.019619690E1,1.044477768E1
8.464185583E0,5.402265930E-1,2.018402710E0,1.098071548E1,1.117774158E1
8.474132583E0,5.441184998E-1,1.899699554E0,1.176238998E1,1.192722690E1
8.484080583E0,5.406756592E-1,1.637893982E0,1.235381012E1,1.247363826E1
8.494027583E0,4.888833618E-1,1.277443542E0,1.275258087E1,1.282572368E1
8.503975583E0,4.399351501E-1,9.672885132E-1,1.276829819E1,1.281244038E1
8.513922583E0,4.376898193E-1,7.929011536E-1,1.243539047E1,1.246832791E1
8.523870583E0,4.484674072E-1,7.816744995E-1,1.185534668E1,1.188954932E1
8.533817583E0,3.938310242E-1,9.042695618E-1,1.126153152E1,1.130464058E1
8.543765583E0,3.607498169E-1,1.048419800E0,1.081950073E1,1.087616295E1
8.553712583E0,3.838018799E-1,1.120270386E0,1.056952057E1,1.063565112E1
8.563660583E0,4.330494690E-1,1.119671631E0,1.054302567E1,1.061115388E1
8.573608583E0,5.884263611E-1,1.082249451E0,1.052236862E1,1.059423196E1
8.583555583E0,8.527766418E-1,1.003213806E0,1.054317535E1,1.062507471E1
8.593503583E0,1.064735870E0,8.428971863E-1,1.060394897E1,1.069055059E1
8.603450583E0,1.218017120E0,6.759942627E-1,1.067864365E1,1.076912086E1
8.613398583E0,1.322050781E0,5.468128967E-1,1.068957092E1,1.078488522E1
8.623345583E0,1.357676697E0,4.397854614E-1,1.062730042E1,1.072269609E1
8.633293583E0,1.291963348E0,3.983216858E-1,1.044812302E1,1.053523156E1
8.643240583E0,1.227447510E0,4.426295471E-1,1.014829651E1,1.023183612E1
8.653188583E0,1.153351593E0,5.382806396E-1,9.788295135E0,9.870698435E0
8.663135583E0,1.077160034E0,6.074368286E-1,9.400900726E0,9.481887349E0
8.673083583E0,1.033750305E0,6.483018494E-1,8.977581024E0,9.060126711E0
8.683031583E0,9.990225220E-1,6.969506836E-1,8.595425720E0,8.681309208E0
8.692978583E0,9.677375793E-1,7.276368713E-1,8.303532715E0,8.391342383E0
8.702926583E0,9.675878906E-1,7.622149658E-1,8.073161774E0,8.166586741E0
8.712873583E0,9.372010803E-1,8.081694031E-1,7.899373169E0,7.995722613E0
8.722821583E0,9.128018188E-1,8.527766418E-1,7.806715851E0,7.906026027E0
8.732768583E0,8.610095215E-1,8.990304565E-1,7.760012970E0,7.859223527E0
8.742716583E0,8.226892090E-1,9.876461792E-1,7.761659546E0,7.867377035E0
8.752663583E0,8.202941895E-1,1.071172485E0,7.784861298E0,7.900908712E0
8.762611583E0,8.605604553E-1,1.111588440E0,7.752378845E0,7.878805171E0
8.772557625E0,8.765771484E-1,1.181493073E0,7.773185577E0,7.911177371E0
8.782505625E0,8.794212341E-1,1.273701324E0,7.789801025E0,7.942083907E0
8.792453625E0,8.393046570E-1,1.367855530E0,7.765850830E0,7.929936959E0
8.802400625E0,7.788304138E-1,1.458566895E0,7.686515808E0,7.862348216E0
8.812348625E0,6.285429382E-1,1.510658569E0,7.663314056E0,7.836040956E0
8.822295625E0,4.903802490E-1,1.554068298E0,7.760312347E0,7.929568008E0
8.832243625E0,4.317022705E-1,1.621877289E0,7.995772705E0,8.170020437E0
8.842190625E0,3.480262756E-1,1.612895966E0,8.326285400E0,8.488202652E0
8.852138625E0,2.315684509E-1,1.573078766E0,8.633296967E0,8.778497438E0
8.862085625E0,1.871109009E-1,1.543290710E0,8.893006897E0,9.027863999E0
8.872033625E0,1.592687988E-1,1.496587830E0,9.161249084E0,9.284052266E0
8.881980625E0,1.456471252E-1,1.450334015E0,9.397607574E0,9.509979493E0
8.891928625E0,1.380130005E-1,1.404080200E0,9.607920227E0,9.710953603E0
8.901876625E0,7.005432129E-2,1.337319031E0,9.867031403E0,9.957491577E0
8.911823625E0,-7.439529419E-2,1.217568054E0,1.013572266E1,1.020886284E1
8.921771625E0,-3.356021118E-1,1.092428284E0,1.050350784E1,1.056549598E1
8.931718625E0,-7.128176880E-1,9.154962158E-1,1.100721039E1,1.106819420E1
8.941666625E0,-1.066232758E0,7.659571838E-1,1.154579041E1,1.162019014E1
8.951613625E0,-1.290915527E0,6.683601379E-1,1.201805832E1,1.210565545E1
8.961561625E0,-1.368005219E0,5.945635986E-1,1.242251724E1,1.251174963E1
8.971508625E0,-1.306483154E0,6.222560120E-1,1.271141647E1,1.279352217E1
8.981456625E0,-1.256936188E0,7.665559387E-1,1.286799088E1,1.295193753E1
8.991403625E0,-1.283880157E0,9.198371887E-1,1.277069321E1,1.286798561E1
9.001351625E0,-1.333277435E0,1.107846222E0,1.235291199E1,1.247394831E1
9.011299625E0,-1.391356659E0,1.377285919E0,1.155866364E1,1.172328857E1
9.021246625E0,-1.492396545E0,1.547182617E0,1.083656525E1,1.104772229E1
9.031194625E0,-1.749112701E0,1.645677795E0,1.030531998E1,1.058145881E1
9.041141625E0,-2.028880920E0,1.712289276E0,9.999206543E0,1.034564758E1
9.051089625E0,-2.164049835E0,1.625918884E0,9.985884247E0,1.034623642E1
9.061036625E0,-2.113904114E0,1.380130005E0,1.017509079E1,1.048359776E1
9.070984625E0,-1.713337097E0,1.065035248E0,1.041429337E1,1.060789001E1
9.080931625E0,-1.204844513E0,8.201445007E-1,1.058673477E1,1.068659162E1
9.090879625E0,-8.596623230E-1,6.869215393E-1,1.071322174E1,1.076958683E1
9.100827625E0,-6.990463257E-1,6.517446899E-1,1.073372910E1,1.077619493E1
9.110774625E0,-7.701484680E-1,6.614744568E-1,1.065050217E1,1.069877907E1
9.120722625E0,-8.626560974E-1,6.929090881E-1,1.036384827E1,1.042274673E1
9.130669625E0,-9.128018188E-1,6.830296326E-1,1.001088226E1,1.007558933E1
9.140617625E0,-9.789642334E-1,6.854246521E-1,9.734407196E0,9.807490065E0
9.150564625E0,-8.358618164E-1,7.644602966E-1,9.427844696E0,9.495647431E0
9.160512625E0,-5.224136353E-1,8.604107666E-1,9.141340485E0,9.196593312E0
9.170459625E0,-1.384620667E-1,8.740324402E-1,8.965306549E0,9.008874845E0
9.180407625E0,1.814227295E-1,7.607180786E-1,8.860674133E0,8.895119578E0
9.190354625E0,3.567082214E-1,6.530918884E-1,8.606053619E0,8.638166974E0
9.200302625E0,4.637356567E-1,6.162684631E-1,8.287815399E0,8.323624311E0
9.210250625E0,4.495152283E-1,6.686595154E-1,8.038284302E0,8.078563239E0
9.220197625E0,3.001258850E-1,7.701484680E-1,7.960446167E0,8.003243554E0
9.230145625E0,-8.981323242E-3,9.023236084E-1,8.062833252E0,8.113171304E0
9.240092625E0,-2.881507874E-1,1.026415558E0,8.192463684E0,8.261538657E0
9.250040625E0,-3.938310242E-1,1.183738403E0,8.300239563E0,8.393468668E0
9.259987625E0,-3.914360046E-1,1.360670471E0,8.495134277E0,8.612314013E0
9.269935625E0,-3.406915283E-1,1.556613007E0,8.795858917E0,8.939029526E0
9.279882625E0,-2.399510193E-1,1.722468109E0,9.139693909E0,9.303680864E0
9.289830625E0,-1.603166199E-1,1.846410370E0,9.455088043E0,9.635020632E0
9.299778625E0,-1.097218323E-1,1.964963837E0,9.645492096E0,9.844218584E0
9.309725625E0,-1.284329224E-1,2.137405243E0,9.721384277E0,9.954411507E0
9.319673625E0,-2.712359619E-1,2.307301941E0,9.796378326E0,1.006808023E1
9.329620625E0,-4.912783813E-1,2.441423035E0,9.812694397E0,1.012377757E1
9.339568625E0,-7.086264038E-1,2.518512726E0,9.687255249E0,1.003433964E1
9.349515625E0,-8.448431396E-1,2.550845490E0,9.560319214E0,9.930774195E0
9.359463625E0,-8.605604553E-1,2.458487549E0,9.552385712E0,9.901151353E0
9.369410625E0,-6.756948853E-1,2.321672058E0,9.652078400E0,9.950343821E0
9.379358625E0,-3.555107117E-1,2.193987579E0,9.720186768E0,9.971058126E0
9.389305625E0,-2.978805542E-2,2.067650299E0,9.642198944E0,9.861443381E0
9.399253625E0,2.877017212E-1,1.954785004E0,9.511371002E0,9.714429218E0
9.409201625E0,5.251080322E-1,1.902843018E0,9.398056641E0,9.603125461E0
9.419148625E0,6.135740662E-1,1.870809631E0,9.313781891E0,9.519607919E0
9.429096625E0,5.782475281E-1,1.810485077E0,9.283095703E0,9.475657880E0
9.439043625E0,4.989125061E-1,1.723366241E0,9.357790375E0,9.528228880E0
9.448991625E0,3.447331238E-1,1.663640442E0,9.507928162E0,9.658531895E0
9.458938625E0,9.759704590E-2,1.592538300E0,9.604028320E0,9.735659371E0
9.468886625E0,1.053808594E-1,1.596280518E0,9.533075867E0,9.666372230E0
9.478833625E0,1.947450256E-1,1.676663361E0,9.403894501E0,9.554180102E0
9.488781625E0,2.077679443E-1,1.757495270E0,9.337881775E0,9.504104018E0
9.498729625E0,2.194436646E-1,1.880539398E0,9.321565704E0,9.511896295E0
9.508676625E0,2.826123047E-1,2.092348938E0,9.380543060E0,9.615216165E0
9.518624625E0,3.338058472E-1,2.307451630E0,9.477840729E0,9.760390579E0
9.528571625E0,3.447331238E-1,2.374212799E0,9.518256683E0,9.815953221E0
9.538519625E0,2.221380615E-1,2.268233185E0,9.535919952E0,9.804488586E0
9.548466625E0,2.649490356E-2,1.976040802E0,9.621392212E0,9.822251642E0
9.558414625E0,-8.367599487E-2,1.749711456E0,9.784852295E0,9.940413788E0
9.568361625E0,-2.724334717E-2,1.551972656E0,1.003588028E1,1.015520824E1
9.578309625E0,6.721023560E-2,1.318009186E0,1.033136581E1,1.041531493E1
9.588257625E0,2.392025757E-1,1.021775208E0,1.059960800E1,1.065142865E1
9.598204625E0,4.290078735E-1,7.429051208E-1,1.080857346E1,1.084256501E1
9.608152625E0,5.938151550E-1,5.968089294E-1,1.091245743E1,1.094488577E1
9.618099625E0,7.283853149E-1,5.614823914E-1,1.085422852E1,1.089312096E1
9.628047625E0,7.503895569E-1,6.462062073E-1,1.063688049E1,1.068287852E1
9.637994625E0,7.656578064E-1,7.195536804E-1,1.033376083E1,1.038704011E1
9.647942625E0,7.943980408E-1,7.358697510E-1,9.954449615E0,1.001317331E1
9.657889625E0,7.131170654E-1,6.750961304E-1,9.668095093E0,9.717836871E0
9.667837625E0,6.643185425E-1,6.056405640E-1,9.499395905E0,9.541836415E0
9.677785625E0,6.233038330E-1,5.483097839E-1,9.565857697E0,9.601811535E0
9.687732625E0,5.798941040E-1,4.794529724E-1,9.779164124E0,9.808068275E0
9.697680625E0,6.283932495E-1,3.406915283E-1,9.873168640E0,9.899010445E0
9.707627625E0,7.155120850E-1,1.710942078E-1,9.945318604E0,9.972491810E0
9.717575625E0,8.544232178E-1,1.945953369E-3,9.967472534E0,1.000402677E1
9.727522625E0,9.901908875E-1,-1.487905884E-1,9.903705139E0,9.954194700E0
9.737470625E0,1.072819061E0,-2.598596191E-1,9.856702881E0,9.918319386E0
9.747417625E0,1.091081085E0,-2.647993469E-1,9.796378326E0,9.860507337E0
9.757365625E0,1.073866882E0,-1.919009399E-1,9.682614899E0,9.743872296E0
9.767313708E0,1.047222290E0,-1.225950623E-1,9.460626526E0,9.519199459E0
9.777260708E0,1.026415558E0,-6.436614990E-2,9.188342743E0,9.245718699E0
9.787208708E0,9.777667236E-1,2.260299683E-2,8.929381256E0,8.982782880E0
9.797155708E0,9.966275024E-1,6.541397095E-2,8.749006348E0,8.805830877E0
9.807103708E0,9.999206543E-1,1.366658020E-1,8.637188873E0,8.695950235E0
9.817050708E0,1.003513184E0,1.877096558E-1,8.559051361E0,8.619723535E0
9.826998708E0,1.097966766E0,2.131567383E-1,8.522677002E0,8.595754190E0
9.836946708E0,1.163680115E0,2.517764282E-1,8.556207275E0,8.638647216E0
9.846893708E0,1.193468170E0,3.085084534E-1,8.628806305E0,8.716412220E0
9.856841708E0,1.146914978E0,3.667373657E-1,8.696016541E0,8.778987068E0
9.866788708E0,9.937834167E-1,4.010160828E-1,8.710985413E0,8.776655755E0
9.876736708E0,8.298742676E-1,4.203259277E-1,8.732091522E0,8.781502579E0
9.886683708E0,6.963519287E-1,4.553530884E-1,8.785979462E0,8.825286825E0
9.896631708E0,6.438111877E-1,5.029541016E-1,8.880882111E0,8.918381172E0
9.906578708E0,5.189707947E-1,5.111869812E-1,9.145082703E0,9.174049294E0
9.916526708E0,4.601431274E-1,5.381309509E-1,9.349108429E0,9.375881027E0
9.926474708E0,3.686833191E-1,5.969586182E-1,9.448202362E0,9.474218430E0
9.936421708E0,2.995271301E-1,6.560856628E-1,9.522447968E0,9.549721472E0
9.946369708E0,3.062631226E-1,7.240443420E-1,9.570348358E0,9.602583246E0
9.956316708E0,2.218386841E-1,7.658074951E-1,9.698182526E0,9.730900155E0
9.966264708E0,6.780899048E-2,7.979905701E-1,9.834548950E0,9.867103935E0
9.976211708E0,-7.469467163E-2,8.116122437E-1,1.002839584E1,1.006146197E1
9.986159708E0,-2.100132751E-1,8.348139954E-1,1.031070877E1,1.034658085E1
9.996106708E0,-2.662962341E-1,8.062234497E-1,1.055500076E1,1.058909586E1
1.000605471E1,-2.844085693E-1,7.512876892E-1,1.075663147E1,1.078658621E1
1.001600271E1,-3.866459656E-1,6.836283875E-1,1.093266541E1,1.096084010E1
1.002594971E1,-5.962101746E-1,5.614823914E-1,1.112381790E1,1.115392549E1
1.003589771E1,-7.063810730E-1,3.983216858E-1,1.122590561E1,1.125515842E1
1.004584471E1,-6.956034851E-1,2.471360779E-1,1.126677063E1,1.129092826E1
1.005579271E1,-6.842271423E-1,1.402583313E-1,1.127335693E1,1.129497303E1
1.006573971E1,-4.340972900E-1,2.245330811E-1,1.113489487E1,1.114561525E1
1.007568771E1,-2.149530029E-1,4.688250732E-1,1.096439941E1,1.097652296E1
1.008563571E1,-3.091072083E-1,4.857398987E-1,1.083970871E1,1.085498850E1
1.009558271E1,-5.111869812E-1,3.983216858E-1,1.072804092E1,1.074759668E1
1.010553071E1,-6.843768311E-1,5.240602112E-1,1.071232361E1,1.074694784E1
1.011547771E1,-8.680448914E-1,8.068222046E-1,1.082818268E1,1.089284188E1
1.012542571E1,-1.209185486E0,9.861492920E-1,1.104178848E1,1.115148927E1
1.013537271E1,-1.601669312E0,9.410929871E-1,1.113040421E1,1.128436522E1
1.014532071E1,-1.758692780E0,7.470964050E-1,1.106992996E1,1.123363266E1
1.015526771E1,-1.705403595E0,5.436694336E-1,1.080378342E1,1.095105995E1
1.016521571E1,-1.479972382E0,3.448828125E-1,1.042477158E1,1.053494778E1
1.017516371E1,-1.183289337E0,2.420466614E-1,1.000309845E1,1.007575004E1
1.018511071E1,-8.548722839E-1,2.842588806E-1,9.599088593E0,9.641271262E0
1.019505871E1,-6.197113037E-1,3.270698547E-1,9.321116638E0,9.347418476E0
1.020500571E1,-5.020559692E-1,3.291654968E-1,9.228309631E0,9.247816433E0
1.021495371E1,-5.495072937E-1,2.992277527E-1,9.363179169E0,9.384062002E0
1.022490071E1,-5.983058167E-1,2.311193848E-1,9.774523773E0,9.795544957E0
1.023484871E1,-6.117778015E-1,2.215393066E-1,1.022239243E1,1.024307857E1
1.024479671E1,-5.375321960E-1,2.332150269E-1,1.054691757E1,1.056318136E1
1.025474371E1,-3.014730835E-1,2.272274780E-1,1.062490540E1,1.063161009E1
1.026469171E1,5.239105225E-3,1.919009399E-1,1.039079224E1,1.039256545E1
1.027463871E1,1.983375549E-1,4.685256958E-2,1.006237518E1,1.006443875E1
1.028458671E1,2.279759216E-1,-9.280700684E-2,9.752519531E0,9.755625217E0
1.029453371E1,2.306703186E-1,-1.419049072E-1,9.431437225E0,9.435324792E0
1.030448171E1,2.128573608E-1,-1.149609375E-1,9.229207764E0,9.232377820E0
1.031442971E1,1.369651794E-1,-8.367599487E-2,9.116342468E0,9.117755268E0
1.032437671E1,6.256988525E-2,-4.505630493E-2,9.128317566E0,9.128643198E0
1.033432471E1,-3.996688843E-2,8.083190918E-3,9.194330292E0,9.194420711E0
1.034427171E1,-6.765930176E-2,9.145980835E-2,9.266180878E0,9.266879234E0
1.035421971E1,-9.879455566E-2,1.898052979E-1,9.268875275E0,9.271344847E0
1.036416671E1,-9.220825195E-2,2.917433167E-1,9.184001770E0,9.189097074E0
1.037411471E1,-2.005828857E-2,3.987707520E-1,9.073232117E0,9.082013075E0
1.038406171E1,6.017486572E-2,4.634362793E-1,8.970994720E0,8.983158714E0
1.039400971E1,1.118174744E-1,4.989125061E-1,8.841513977E0,8.856285127E0
1.040395771E1,1.387614441E-1,5.131329346E-1,8.737330627E0,8.753485400E0
1.041390471E1,1.839674377E-1,5.505551147E-1,8.702004089E0,8.721343367E0
1.042385271E1,1.814227295E-1,5.665718079E-1,8.709488525E0,8.729782826E0
1.043379971E1,1.279838562E-1,5.415737915E-1,8.807534637E0,8.825097644E0
1.044374771E1,8.232879639E-2,5.171745300E-1,9.003776550E0,9.018993275E0
1.045369471E1,6.092330933E-2,4.939727783E-1,9.275910645E0,9.289253955E0
1.046364271E1,7.873626709E-2,4.583468628E-1,9.571695557E0,9.582986856E0
1.047359071E1,9.834548950E-2,4.222718811E-1,9.761500854E0,9.771125028E0
1.048353771E1,1.145118713E-1,3.957769775E-1,9.844877472E0,9.853495056E0
1.049348571E1,1.624122620E-1,4.186793518E-1,9.787995758E0,9.798292254E0
1.050343271E1,2.019300842E-1,4.525090027E-1,9.711504822E0,9.724138320E0
1.051338071E1,2.124082947E-1,5.322930908E-1,9.601633301E0,9.618722122E0
1.052332771E1,1.992356873E-1,5.990542603E-1,9.441915436E0,9.462997832E0
1.053327571E1,1.374142456E-1,6.393205261E-1,9.369915161E0,9.392705869E0
1.054322371E1,1.945953369E-2,6.497987366E-1,9.403894501E0,9.426338040E0
1.055317071E1,-9.116043091E-2,5.915698242E-1,9.559271393E0,9.577992203E0
1.056311871E1,-1.068777466E-1,5.688171387E-1,9.750872955E0,9.768034561E0
1.057306571E1,-2.754272461E-2,5.128335571E-1,9.986183624E0,9.999380993E0
1.058301371E1,9.789642334E-2,4.188290405E-1,1.015667908E1,1.016578238E1
1.059296071E1,2.043251038E-1,2.409988403E-1,1.028107040E1,1.028592426E1
1.060290871E1,2.978805542E-1,8.412506104E-2,1.027313690E1,1.027779897E1
1.061285671E1,4.183799744E-1,-4.730163574E-2,1.026415558E1,1.027278779E1
1.062280371E1,4.623884583E-1,-8.292755127E-2,1.018317398E1,1.019400375E1
1.063275171E1,4.073030090E-1,-6.316864014E-2,1.017314484E1,1.018149114E1
1.064269871E1,2.165995789E-1,-7.858657837E-2,1.030741562E1,1.030999069E1
1.065264671E1,-7.005432129E-2,-1.700463867E-1,1.044423111E1,1.044585022E1
1.066259371E1,-3.962260437E-1,-2.809657288E-1,1.058883041E1,1.059996539E1
1.067254171E1,-6.313870239E-1,-3.511697388E-1,1.063149170E1,1.065601171E1
1.068248971E1,-7.496411133E-1,-4.352947998E-1,1.053120026E1,1.056681703E1
1.069243671E1,-7.785310364E-1,-5.644761658E-1,1.041114990E1,1.045546681E1
1.070238471E1,-7.641609192E-1,-7.388635254E-1,1.034364029E1,1.039811308E1
1.071233171E1,-6.445596313E-1,-8.660989380E-1,1.024709106E1,1.030380802E1
1.072227971E1,-4.769082642E-1,-9.960287476E-1,1.015667908E1,1.021653780E1
1.073222671E1,-2.728825378E-1,-1.097068634E0,1.008168503E1,1.014487050E1
1.074217471E1,-8.771759033E-2,-1.171014862E0,1.012883698E1,1.019668126E1
1.075212271E1,8.801696777E-2,-1.187779999E0,1.027328659E1,1.034209774E1
1.076206971E1,3.270698547E-1,-1.175804901E0,1.040965302E1,1.048095262E1
1.077201738E1,5.351371765E-1,-1.199006653E0,1.053793625E1,1.061942038E1
1.078196437E1,6.532415771E-1,-1.304986267E0,1.067190765E1,1.077122680E1
1.079191238E1,6.551875305E-1,-1.395547943E0,1.087578369E1,1.098451163E1
1.080185938E1,6.668632507E-1,-1.464704132E0,1.108594666E1,1.120215506E1
1.081180737E1,6.581813049E-1,-1.467548218E0,1.114492401E1,1.126038328E1
1.082175538E1,5.810916138E-1,-1.464105377E0,1.105930206E1,1.117091913E1
1.083170238E1,5.219645691E-1,-1.459465027E0,1.076965439E1,1.088062226E1
1.084165037E1,5.077441406E-1,-1.460812225E0,1.035950729E1,1.047430990E1
1.085159738E1,5.240602112E-1,-1.457219696E0,1.001207977E1,1.013113368E1
1.086154538E1,5.774990845E-1,-1.425785065E0,9.724677429E0,9.845593905E0
1.087149238E1,5.803431702E-1,-1.380878448E0,9.511071625E0,9.628297198E0
1.088144038E1,5.562432861E-1,-1.303938446E0,9.331295471E0,9.438365178E0
1.089138838E1,6.135740662E-1,-1.244362335E0,9.224268036E0,9.328023990E0
1.090133538E1,6.917115784E-1,-1.204245758E0,9.166937256E0,9.271537705E0
1.091128337E1,7.975415039E-1,-1.183738403E0,9.169931030E0,9.280352588E0
1.092123038E1,8.461903381E-1,-1.137634277E0,9.206904144E0,9.315435243E0
1.093117838E1,8.339158630E-1,-1.053509216E0,9.194330292E0,9.291986163E0
1.094112537E1,7.547305298E-1,-9.988728333E-1,9.168883209E0,9.253960472E0
1.095107338E1,7.123686218E-1,-8.881031799E-1,9.128167877E0,9.198893689E0
1.096102138E1,7.424560547E-1,-7.719447327E-1,9.058412933E0,9.121512185E0
1.097096837E1,7.267387390E-1,-6.583309937E-1,9.018595734E0,9.071748337E0
1.098091638E1,7.569758606E-1,-5.526507568E-1,9.011560364E0,9.060168624E0
1.099086338E1,8.427474976E-1,-4.504133606E-1,9.017996979E0,9.068481959E0
1.100081137E1,8.548722839E-1,-3.860472107E-1,9.057814178E0,9.106252619E0
1.101075838E1,8.192463684E-1,-3.071612549E-1,9.057814178E0,9.099973096E0
1.102070638E1,6.848258972E-1,-2.374063110E-1,9.103918304E0,9.132725593E0
1.103065437E1,5.266049194E-1,-1.736389160E-1,9.221274261E0,9.237930624E0
1.104060138E1,3.573069763E-1,-8.562194824E-2,9.437424774E0,9.444574409E0
1.105054938E1,2.607577515E-1,3.817062378E-2,9.673034821E0,9.676624114E0
1.106049637E1,2.255809021E-1,1.704954529E-1,9.837991791E0,9.842054558E0
1.107044438E1,1.919009399E-1,2.520758057E-1,9.896969147E0,9.902038501E0
1.108039138E1,1.347198486E-3,2.627037048E-1,9.899214478E0,9.902699749E0
1.109033937E1,-2.080673218E-1,2.317181396E-1,9.886341248E0,9.891245046E0
1.110028738E1,-3.308120728E-1,2.567161560E-1,9.909992065E0,9.918834737E0
1.111023438E1,-3.769161987E-1,2.923420715E-1,1.004156845E1,1.005289146E1
1.112018237E1,-3.195854187E-1,2.791694641E-1,1.016940262E1,1.017825231E1
1.113012938E1,-2.471360779E-1,2.683918762E-1,1.024993515E1,1.025642633E1
1.114007738E1,-2.353106689E-1,2.293231201E-1,1.034139496E1,1.034661345E1
1.115002437E1,-2.329156494E-1,2.062710571E-1,1.045515839E1,1.045978653E1
1.115997238E1,-2.725831604E-1,1.740879822E-1,1.058463913E1,1.058957949E1
1.116992038E1,-4.125421143E-1,1.701960754E-1,1.068627777E1,1.069559210E1
1.117986737E1,-5.378315735E-1,2.083666992E-1,1.069076843E1,1.070631632E1
1.118981538E1,-5.864804077E-1,2.833607483E-1,1.058688446E1,1.060690224E1
1.119976238E1,-5.677693176E-1,3.037184143E-1,1.038929535E1,1.040922979E1
1.120971037E1,-4.496649170E-1,2.905458069E-1,1.015578094E1,1.016988210E1
1.121965838E1,-2.799179077E-1,3.258723450E-1,9.949809265E0,9.959078835E0
1.122960538E1,-1.401086426E-1,4.034111023E-1,9.901609497E0,9.910814375E0
1.123955337E1,-1.724414062E-1,5.140310669E-1,9.966724091E0,9.981460468E0
1.124950038E1,-3.231779480E-1,5.054988098E-1,9.990075531E0,1.000807585E1
1.125944838E1,-5.248086548E-1,4.312532043E-1,9.994416504E0,1.001747297E1
1.126939537E1,-6.911128235E-1,3.568579102E-1,9.999505920E0,1.002971102E1
1.127934338E1,-6.454577637E-1,3.194357300E-1,1.009276199E1,1.011842377E1
1.128929138E1,-5.900729370E-1,2.363584900E-1,1.027628036E1,1.029592101E1
1.129923838E1,-6.547384644E-1,4.326004028E-2,1.055949142E1,1.057985884E1
1.130918638E1,-7.158114624E-1,-1.612147522E-1,1.083641556E1,1.086122822E1
1.131913338E1,-7.297325134E-1,-3.555107117E-1,1.112321915E1,1.115279793E1
1.132908138E1,-6.947053528E-1,-5.257067871E-1,1.146615601E1,1.149920505E1
1.133902837E1,-6.459068298E-1,-6.715036011E-1,1.172841064E1,1.176536140E1
1.134897638E1,-6.430627441E-1,-7.696994019E-1,1.185384979E1,1.189620619E1
1.135892438E1,-5.974076843E-1,-8.012837219E-1,1.178379547E1,1.182610617E1
1.136887137E1,-5.421725464E-1,-7.357200623E-1,1.146974854E1,1.150610127E1
1.137881938E1,-5.912704468E-1,-6.396199036E-1,1.099074463E1,1.102520666E1
1.138876638E1,-7.292834473E-1,-5.845344543E-1,1.047776138E1,1.051936398E1
1.139871437E1,-8.370593262E-1,-5.334906006E-1,1.008677444E1,1.013549699E1
1.140866238E1,-9.788145447E-1,-5.207670593E-1,9.854756927E0,9.916930490E0
1.141860938E1,-1.126557312E0,-5.932164001E-1,9.747729492E0,9.830527317E0
1.142855737E1,-1.148262177E0,-6.391708374E-1,9.792636108E0,9.880423439E0
1.143850438E1,-1.072968750E0,-6.262976074E-1,9.849368134E0,9.927414732E0
1.144845238E1,-9.485774231E-1,-6.277944946E-1,9.773475952E0,9.839449031E0
1.145839937E1,-8.598120117E-1,-6.342311096E-1,9.593101044E0,9.652414901E0
1.146834738E1,-7.354206848E-1,-5.748046875E-1,9.271120605E0,9.317989123E0
1.147829538E1,-6.357279968E-1,-3.942800903E-1,8.998537445E0,9.029578231E0
1.148824237E1,-7.204518127E-1,-2.643502808E-1,8.897048492E0,8.930084197E0
1.149819038E1,-8.744815063E-1,-1.348695374E-1,8.877439270E0,8.921425653E0
1.150813738E1,-9.220825195E-1,5.613327026E-2,8.873397675E0,8.921354909E0
1.151808537E1,-8.581654358E-1,2.151026917E-1,8.940308533E0,8.983976499E0
1.152803338E1,-7.258406067E-1,2.653981018E-1,8.955726471E0,8.989010922E0
1.153798038E1,-6.230044556E-1,2.993774414E-1,8.867260437E0,8.894159267E0
1.154792837E1,-5.255570984E-1,3.556604004E-1,8.795260162E0,8.818123718E0
1.155787538E1,-4.821473694E-1,4.008663940E-1,8.745563507E0,8.768012375E0
1.156782338E1,-4.457730103E-1,4.339476013E-1,8.744515686E0,8.766617288E0
1.157777037E1,-4.632865906E-1,4.496649170E-1,8.846304016E0,8.869832453E0
1.158771838E1,-5.399272156E-1,4.284091187E-1,9.017398224E0,9.043700929E0
1.159766638E1,-5.427713013E-1,4.222718811E-1,9.173822937E0,9.199562028E0
1.160761337E1,-5.185217285E-1,4.451742554E-1,9.366771698E0,9.391669550E0
1.161756138E1,-4.819976807E-1,4.791535950E-1,9.530082092E0,9.554285668E0
1.162750838E1,-4.918771362E-1,4.900808716E-1,9.631720734E0,9.656716143E0
1.163745637E1,-4.858895874E-1,4.426295471E-1,9.777667236E0,9.799733986E0
1.164740338E1,-4.409829712E-1,4.287084961E-1,9.894274750E0,9.913371262E0
1.165735138E1,-4.315525818E-1,3.830534363E-1,1.006327332E1,1.007980344E1
1.166729937E1,-4.225712585E-1,3.450325012E-1,1.019949005E1,1.021406928E1
1.167724638E1,-3.751199341E-1,4.294569397E-1,1.020727386E1,1.022318874E1
1.168719438E1,-2.736309814E-1,5.429209900E-1,1.010309052E1,1.012136725E1
1.169714137E1,-2.424957275E-1,6.251000977E-1,9.938881989E0,9.961472255E0
1.170708938E1,-2.433938599E-1,7.008425903E-1,9.686057739E0,9.714429239E0
1.171703738E1,-3.068618774E-1,7.881111145E-1,9.526339874E0,9.563808590E0
1.172698438E1,-4.144880676E-1,8.541238403E-1,9.475894775E0,9.523335009E0
1.173693238E1,-5.513035583E-1,8.860075378E-1,9.513017578E0,9.570080899E0
1.174687938E1,-6.033952332E-1,9.448352051E-1,9.561217346E0,9.626716809E0
1.175682738E1,-5.204676819E-1,1.028511200E0,9.506131897E0,9.575764488E0
1.176677437E1,-4.284091187E-1,1.054257660E0,9.467512207E0,9.535658392E0
1.177672313E1,-4.013154602E-1,9.467811584E-1,9.518556061E0,9.573941620E0
1.178667113E1,-3.327580261E-1,8.457412720E-1,9.676327972E0,9.718916052E0
1.179661812E1,-3.559597778E-1,8.087681580E-1,9.905351715E0,9.944687320E0
1.180656613E1,-3.510200500E-1,8.253836060E-1,1.010832962E1,1.014804419E1
1.181651313E1,-3.592529297E-1,8.634045410E-1,1.019380188E1,1.023660719E1
1.182646112E1,-4.581971741E-1,8.729846191E-1,1.024649231E1,1.029381618E1
1.183640913E1,-5.646258545E-1,8.262817383E-1,1.034648438E1,1.039477190E1
1.184635613E1,-6.048921204E-1,7.069798279E-1,1.052221893E1,1.056327630E1
1.185630412E1,-6.418652344E-1,5.878276062E-1,1.075333832E1,1.078850394E1
1.186625113E1,-6.514453125E-1,4.318519592E-1,1.094673615E1,1.097460292E1
1.187619913E1,-5.780978394E-1,3.339555359E-1,1.094733490E1,1.096767363E1
1.188614712E1,-4.902305603E-1,2.215393066E-1,1.075019485E1,1.076364692E1
1.189609412E1,-4.537065125E-1,8.876541138E-2,1.053254745E1,1.054268869E1
1.190604213E1,-3.516188049E-1,7.708969116E-2,1.027059219E1,1.027689849E1
1.191598913E1,-1.833686829E-1,1.962419128E-1,9.868827667E0,9.872481678E0
1.192593712E1,-1.131646729E-1,3.338058472E-1,9.495953064E0,9.502492156E0
1.193588413E1,-1.139131165E-1,4.116439819E-1,9.148675232E0,9.158639935E0
1.194583213E1,-1.212478638E-1,4.689747620E-1,8.936566315E0,8.949684680E0
1.195578012E1,-8.427474976E-2,5.496569824E-1,8.860524445E0,8.877956886E0
1.196572713E1,-3.966751099E-2,6.161187744E-1,8.810827789E0,8.832432405E0
1.197567513E1,-5.508544922E-2,5.858816528E-1,8.794212341E0,8.813878966E0
1.198562212E1,-9.475296021E-2,5.321434021E-1,8.745713196E0,8.762400015E0
1.199557013E1,-1.778302002E-1,4.977149963E-1,8.764424286E0,8.780346056E0
1.200551813E1,-2.384541321E-1,4.873864746E-1,8.817414093E0,8.834092893E0
1.201546512E1,-2.290237427E-1,4.287084961E-1,8.861572266E0,8.874891879E0
1.202541313E1,-2.062710571E-1,3.749702454E-1,9.026978302E0,9.037117223E0
1.203536013E1,-2.659968567E-1,2.805166626E-1,9.336684265E0,9.344683889E0
1.204530812E1,-2.893482971E-1,2.284249878E-1,9.708660736E0,9.715657142E0
1.205525613E1,-2.784210205E-1,2.013313293E-1,1.002974304E1,1.003562644E1
1.206520313E1,-3.059637451E-1,1.595681763E-1,1.026310776E1,1.026890728E1
1.207515112E1,-2.457888794E-1,1.914518738E-1,1.033510803E1,1.033980290E1
1.208509813E1,-9.669891357E-2,2.363584900E-1,1.017524048E1,1.017844462E1
1.209504613E1,-3.278182983E-2,2.905458069E-1,9.851463776E0,9.855801846E0
1.210499412E1,2.365081787E-2,3.333567810E-1,9.400002594E0,9.405941467E0
1.211494113E1,2.130070496E-1,4.469705200E-1,8.940458221E0,8.954158132E0
1.212488913E1,4.189787292E-1,6.367758179E-1,8.619525604E0,8.653164061E0
1.213483612E1,5.963598633E-1,7.601193237E-1,8.487200775E0,8.542014017E0
1.214478413E1,6.566844177E-1,7.755372620E-1,8.494984589E0,8.555551159E0
1.215473113E1,5.252577209E-1,7.541317749E-1,8.625962219E0,8.674781531E0
1.216467912E1,4.011657715E-1,6.987469482E-1,8.736881561E0,8.773954678E0
1.217462713E1,5.040019226E-1,6.815327454E-1,8.744665375E0,8.785651788E0
1.218457413E1,6.896159363E-1,6.938072205E-1,8.661588135E0,8.716653464E0
1.219452212E1,7.602690125E-1,6.471043396E-1,8.480464783E0,8.539030152E0
1.220446913E1,6.339317322E-1,6.565347290E-1,8.346493378E0,8.396240766E0
1.221441713E1,4.043092346E-1,7.779322815E-1,8.282426605E0,8.328699482E0
1.222436512E1,1.657054138E-1,9.792636108E-1,8.283175049E0,8.342505882E0
1.223431213E1,-6.900650024E-2,1.090182953E0,8.343349915E0,8.414555756E0
1.224426013E1,-3.029699707E-1,1.116827545E0,8.405171356E0,8.484456382E0
1.225420712E1,-3.706292725E-1,1.075663147E0,8.477171631E0,8.553178130E0
1.226415513E1,-3.308120728E-1,9.783654785E-1,8.625064087E0,8.686677509E0
1.227410313E1,-2.254312134E-1,8.789721680E-1,8.869505768E0,8.915803041E0
1.228405012E1,-5.748046875E-2,7.982899475E-1,9.115294647E0,9.150364329E0
1.229399813E1,-1.152603149E-2,6.900650024E-1,9.379794617E0,9.405151227E0
1.230394513E1,-9.714797974E-2,5.092410278E-1,9.684710541E0,9.698576309E0
1.231389312E1,-2.053729248E-1,3.511697388E-1,9.910740509E0,9.919086433E0
1.232384012E1,-3.207829285E-1,2.803669739E-1,1.010533585E1,1.011431263E1
1.233378813E1,-4.535568237E-1,3.510200500E-1,1.033331177E1,1.034921548E1
1.234373613E1,-5.207670593E-1,4.456233215E-1,1.050231033E1,1.052465205E1
1.235368312E1,-6.288423157E-1,3.465293884E-1,1.068552933E1,1.070962475E1
1.236363113E1,-7.996371460E-1,7.888595581E-2,1.086036575E1,1.089004990E1
1.237357813E1,-7.936495972E-1,-1.688488770E-1,1.099044525E1,1.102035736E1
1.238352612E1,-5.303471375E-1,-3.215313721E-1,1.104148911E1,1.105889380E1
1.239347413E1,-2.140548706E-1,-4.358935547E-1,1.111723160E1,1.112783272E1
1.240342113E1,6.436614990E-3,-5.092410278E-1,1.120180573E1,1.121337680E1
1.241336912E1,5.403762817E-2,-5.177732849E-1,1.129356491E1,1.130555694E1
1.242331613E1,1.451980591E-2,-4.673281860E-1,1.128009293E1,1.128977869E1
1.243326413E1,-1.483415222E-1,-4.242178345E-1,1.118713623E1,1.119615930E1
1.244321212E1,-3.930825806E-1,-3.885919189E-1,1.099837875E1,1.101225921E1
1.245315913E1,-5.294490051E-1,-3.070115662E-1,1.055245605E1,1.057018927E1
1.246310713E1,-5.276527405E-1,-2.082170105E-1,1.003183868E1,1.004786341E1
1.247305412E1,-4.629872131E-1,-1.210981750E-1,9.489965515E0,9.502024385E0
1.248300213E1,-3.477268982E-1,-3.367996216E-2,8.957522736E0,8.964332763E0
1.249295013E1,-2.287243652E-1,-9.280700684E-3,8.604706421E0,8.607750784E0
1.250289712E1,-1.263372803E-1,-3.861968994E-2,8.391399994E0,8.392439839E0
1.251284513E1,-7.544311523E-2,-3.966751099E-2,8.319848785E0,8.320285391E0
1.252279213E1,-1.035845947E-1,-3.233276367E-2,8.414452057E0,8.415151727E0
1.253274012E1,-1.835183716E-1,-6.361770630E-2,8.656349030E0,8.658527861E0
1.254268813E1,-2.647993469E-1,-9.460327148E-2,8.995543671E0,8.999937467E0
1.255263513E1,-2.577639771E-1,-1.609153748E-1,9.382638702E0,9.387557992E0
1.256258312E1,-1.023870850E-1,-1.778302002E-1,9.654623108E0,9.656803511E0
1.257253013E1,1.269360352E-1,-1.734892273E-1,9.760752411E0,9.763119322E0
1.258247813E1,3.216810608E-1,-2.174977112E-1,9.733359375E0,9.741102026E0
1.259242612E1,4.858895874E-1,-3.887416077E-1,9.560768280E0,9.580996756E0
1.260237313E1,5.727090454E-1,-6.277944946E-1,9.493258667E0,9.531216171E0
1.261232113E1,7.036866760E-1,-8.059240723E-1,9.630373535E0,9.689622437E0
1.262226812E1,8.258326721E-1,-9.404942322E-1,9.942025452E0,1.002049894E1
1.263221613E1,8.445437622E-1,-9.848020935E-1,1.033166519E1,1.041279957E1
1.264216413E1,5.626799011E-1,-9.358538818E-1,1.060095520E1,1.065704848E1
1.265211112E1,1.483415222E-1,-8.405021667E-1,1.038585251E1,1.042086280E1
1.266205913E1,-6.571334839E-2,-7.400610352E-1,9.742939453E0,9.771227035E0
1.267200613E1,-2.712359619E-1,-6.884184265E-1,9.179361420E0,9.209134864E0
1.268195412E1,-3.324586487E-1,-6.929090881E-1,8.874295807E0,8.907512438E0
1.269190213E1,-1.800755310E-1,-7.788304138E-1,8.949589233E0,8.985218498E0
1.270184913E1,-6.646179199E-2,-8.587641907E-1,9.293274536E0,9.333104773E0
1.271179712E1,2.978805542E-2,-8.836125183E-1,9.743837585E0,9.783865765E0
1.272174413E1,1.645079041E-1,-8.855584717E-1,1.015368530E1,1.019355688E1
1.273169213E1,1.357676697E-1,-8.041278076E-1,1.056607773E1,1.059750220E1
1.274164012E1,7.200027466E-2,-6.602769470E-1,1.083866089E1,1.085899257E1
1.275158713E1,-1.028361511E-1,-5.505551147E-1,1.087982529E1,1.089423171E1
1.276153513E1,-5.715115356E-1,-3.737727356E-1,1.080827408E1,1.082982549E1
1.277148258E1,-8.569679260E-1,-1.199006653E-1,1.046833099E1,1.050403370E1
1.278143058E1,-9.406439209E-1,1.261875916E-1,1.008228378E1,1.012685443E1
1.279137858E1,-8.568182373E-1,3.342549133E-1,9.666448517E0,9.710102511E0
1.280132558E1,-6.873706055E-1,4.218228149E-1,9.378597107E0,9.413208620E0
1.281127358E1,-6.194119263E-1,4.453239441E-1,9.238488464E0,9.269932775E0
1.282122058E1,-8.378077698E-1,3.141966248E-1,9.289682007E0,9.332675563E0
1.283116858E1,-1.184187469E0,6.406677246E-2,9.533225555E0,9.606705679E0
1.284111658E1,-1.548679504E0,-1.053808594E-1,9.821226654E0,9.943138656E0
1.285106358E1,-1.935325470E0,-1.589694214E-1,1.001896545E1,1.020541154E1
1.286101158E1,-2.161954193E0,-1.836680603E-1,1.027508286E1,1.050167166E1
1.287095858E1,-2.313588867E0,-1.046324158E-1,1.034408936E1,1.060018047E1
1.288090658E1,-2.411036224E0,7.214996338E-2,1.026759842E1,1.054712656E1
1.289085458E1,-2.365530853E0,1.752854919E-1,1.018526962E1,1.045782858E1
1.290080158E1,-2.319726105E0,2.764750671E-1,1.006417145E1,1.033175274E1
1.291074958E1,-2.307301941E0,2.897973633E-1,9.982441406E0,1.024972005E1
1.292069658E1,-2.412233734E0,1.639091492E-1,1.017628830E1,1.045956889E1
1.293064458E1,-2.726130981E0,-1.754351807E-1,1.066487228E1,1.100918110E1
1.294059158E1,-2.984942780E0,-5.957611084E-1,1.139146133E1,1.179110707E1
1.295053958E1,-2.777474213E0,-8.144563293E-1,1.192120972E1,1.226755653E1
1.296048758E1,-2.335144043E0,-9.104067993E-1,1.218735626E1,1.244240294E1
1.297043458E1,-1.861379242E0,-1.063688049E0,1.210427902E1,1.229266999E1
1.298038258E1,-1.558259583E0,-1.263372803E0,1.170565796E1,1.187630885E1
1.299033058E1,-1.558109894E0,-1.380579071E0,1.116588043E1,1.135828292E1
1.300027758E1,-1.713935852E0,-1.378333740E0,1.068238586E1,1.090645441E1
1.301022558E1,-1.913770294E0,-1.249002686E0,1.037058426E1,1.061939463E1
1.302017258E1,-2.079625397E0,-1.177750854E0,1.027687912E1,1.055112237E1
1.303012058E1,-2.057172089E0,-1.216819611E0,1.033091675E1,1.060379403E1
1.304006858E1,-1.846560059E0,-1.279090118E0,1.042656784E1,1.066579451E1
1.305001558E1,-1.512155457E0,-1.289119263E0,1.045500870E1,1.064216376E1
1.305996358E1,-1.171463928E0,-1.212029572E0,1.029678772E1,1.043384784E1
1.306991058E1,-1.035546570E0,-1.104553070E0,1.005414230E1,1.016750567E1
1.307985858E1,-1.099763031E0,-9.189390564E-1,9.842482452E0,9.946275109E0
1.308980658E1,-1.259331207E0,-7.686515808E-1,9.708061981E0,9.819531953E0
1.309975358E1,-1.348695374E0,-5.938151550E-1,9.604776764E0,9.717166888E0
1.310970158E1,-1.397344208E0,-4.818479919E-1,9.438173218E0,9.553212131E0
1.311964858E1,-1.350192261E0,-4.550537109E-1,9.261690216E0,9.370645585E0
1.312959658E1,-1.166075134E0,-4.213737488E-1,9.215586090E0,9.298618932E0
1.313954458E1,-8.928932190E-1,-3.656895447E-1,9.116791534E0,9.167708276E0
1.314949158E1,-7.020401001E-1,-3.070115662E-1,8.966953125E0,8.999631367E0
1.315943958E1,-6.794371033E-1,-2.815644836E-1,8.845854950E0,8.876376689E0
1.316938658E1,-7.708969116E-1,-2.395019531E-1,8.848100281E0,8.884847878E0
1.317933458E1,-8.640032959E-1,-2.130070496E-1,8.979526978E0,9.023512533E0
1.318928258E1,-8.614585876E-1,-1.225950623E-1,9.190139008E0,9.231240189E0
1.319922958E1,-7.927514648E-1,-4.176315308E-2,9.277706909E0,9.311608053E0
1.320917758E1,-6.987469482E-1,-2.484832764E-2,9.237740021E0,9.264162425E0
1.321912458E1,-7.355703735E-1,-6.182144165E-2,9.083261261E0,9.113205846E0
1.322907258E1,-7.738906860E-1,-4.430786133E-2,8.918603668E0,8.952226615E0
1.323902058E1,-7.631130981E-1,3.442840576E-3,8.781039734E0,8.814137068E0
1.324896758E1,-7.988887024E-1,2.859054565E-2,8.727301483E0,8.763836589E0
1.325891558E1,-7.996371460E-1,5.284011841E-2,8.732989655E0,8.769681861E0
1.326886258E1,-6.785389709E-1,9.250762939E-2,8.741821289E0,8.768603780E0
1.327881058E1,-4.941224670E-1,1.579216003E-1,8.723858643E0,8.739268039E0
1.328875858E1,-3.007246399E-1,1.992356873E-1,8.648565216E0,8.656085170E0
1.329870558E1,-1.529818726E-1,2.251318359E-1,8.584348755E0,8.588662954E0
1.330865358E1,-1.032852173E-2,2.722837830E-1,8.510552216E0,8.514913044E0
1.331860058E1,7.903564453E-2,3.691323853E-1,8.434061279E0,8.442505257E0
1.332854858E1,1.002914429E-1,4.689747620E-1,8.418343964E0,8.431993287E0
1.333849658E1,1.288819885E-1,5.487588501E-1,8.478219452E0,8.496937796E0
1.334844358E1,1.850152588E-1,6.138734436E-1,8.583450623E0,8.607362885E0
1.335839158E1,2.001338196E-1,6.360273743E-1,8.735534363E0,8.760944297E0
1.336833958E1,1.231938171E-1,6.170169067E-1,8.895850983E0,8.918074416E0
1.337828658E1,5.583389282E-2,6.590794373E-1,9.063202972E0,9.087307150E0
1.338823458E1,5.718109131E-2,7.509883118E-1,9.228459320E0,9.259142214E0
1.339818158E1,2.903961182E-2,7.656578064E-1,9.338779907E0,9.370159301E0
1.340812958E1,1.886077881E-2,7.631130981E-1,9.437574463E0,9.468395274E0
1.341807758E1,5.403762817E-2,8.536747742E-1,9.483229523E0,9.521728985E0
1.342802458E1,9.265731812E-2,1.028660889E0,9.476343842E0,9.532461445E0
1.343797258E1,3.502716064E-2,1.178798676E0,9.402397614E0,9.476068494E0
1.344791958E1,-9.909393311E-2,1.219663696E0,9.381441193E0,9.460911055E0
1.345786758E1,-3.020718384E-1,1.194815369E0,9.368118896E0,9.448834998E0
1.346781558E1,-3.778143311E-1,1.159937897E0,9.311386871E0,9.390959752E0
1.347776258E1,-3.471281433E-1,1.094074860E0,9.355994110E0,9.426140437E0
1.348771058E1,-2.070195007E-1,1.029109955E0,9.363628235E0,9.422285184E0
1.349765758E1,1.796264648E-2,9.750723267E-1,9.281748505E0,9.332842225E0
1.350760558E1,2.472857666E-1,9.117539978E-1,9.069489899E0,9.118557596E0
1.351755358E1,4.490661621E-1,7.993377686E-1,8.847950592E0,8.895326355E0
1.352750058E1,4.242178345E-1,6.459068298E-1,8.719817047E0,8.753991418E0
1.353744858E1,3.167413330E-1,6.532415771E-1,8.821306000E0,8.851129260E0
1.354739658E1,2.001338196E-1,7.447013855E-1,9.145232391E0,9.177685394E0
1.355734358E1,6.256988525E-2,8.186476135E-1,9.489067383E0,9.524520917E0
1.356729158E1,1.077758789E-2,7.982899475E-1,9.829908600E0,9.862275908E0
1.357723858E1,1.438508606E-1,7.253915405E-1,1.009785141E1,1.012489452E1
1.358718658E1,3.606001282E-1,6.186634827E-1,1.026565247E1,1.029059753E1
1.359713458E1,5.465135193E-1,5.453160095E-1,1.040321640E1,1.043182429E1
1.360708158E1,7.450007629E-1,6.038442993E-1,1.044767395E1,1.049159402E1
1.361702958E1,8.490344238E-1,7.381150818E-1,1.036025574E1,1.042115983E1
1.362697658E1,6.759942627E-1,8.018824768E-1,1.036908737E1,1.042199389E1
1.363692458E1,3.353027344E-1,7.408094788E-1,1.049467621E1,1.052613202E1
1.364687258E1,-6.661148071E-2,5.828878784E-1,1.073537567E1,1.075139462E1
1.365681958E1,-2.149530029E-1,5.215155029E-1,1.106049957E1,1.107487400E1
1.366676758E1,2.933898926E-2,5.941145325E-1,1.140583145E1,1.142133197E1
1.367671458E1,2.399510193E-1,5.581892395E-1,1.171359146E1,1.172933829E1
1.368666258E1,3.550616455E-1,3.387455750E-1,1.179966248E1,1.180986248E1
1.369661058E1,3.688330078E-1,1.185534668E-1,1.179427368E1,1.180063491E1
1.370655758E1,2.748284912E-1,-2.499801636E-2,1.174248138E1,1.174572368E1
1.371650558E1,2.095642090E-2,-1.341210938E-1,1.167676804E1,1.167755708E1
1.372645258E1,-2.667453003E-1,-2.866539001E-1,1.156016052E1,1.156679017E1
1.373640058E1,-2.911445618E-1,-3.400927734E-1,1.123533600E1,1.124425201E1
1.374634858E1,-7.200027466E-2,-2.222877502E-1,1.071112610E1,1.071367435E1
1.375629558E1,1.863624573E-1,-1.276844788E-1,1.003647903E1,1.003902115E1
1.376624358E1,3.454815674E-1,-1.278341675E-1,9.380842438E0,9.388072429E0
1.377619037E1,3.104544067E-1,-1.592687988E-1,9.027726746E0,9.034467261E0
1.378613738E1,2.219883728E-1,-1.437011719E-1,8.925938416E0,8.929854728E0
1.379608538E1,1.067280579E-1,-7.394622803E-2,8.908125458E0,8.909071674E0
1.380603237E1,1.511856079E-2,-2.739303589E-2,9.128018188E0,9.128071812E0
1.381598038E1,-2.275268555E-2,-1.691482544E-2,9.383985901E0,9.384028729E0
1.382592838E1,2.724334717E-2,-8.562194824E-2,9.534572754E0,9.534996115E0
1.383587537E1,1.498384094E-1,-1.745370483E-1,9.744286652E0,9.747001440E0
1.384582338E1,1.681004333E-1,-1.874102783E-1,9.828561401E0,9.831785168E0
1.385577038E1,-3.427871704E-2,-1.314266968E-1,9.903256073E0,9.904187440E0
1.386571837E1,-2.826123047E-1,-1.002914429E-2,9.804012451E0,9.808090051E0
1.387566638E1,-5.343887329E-1,1.672023010E-1,9.711504822E0,9.727633516E0
1.388561338E1,-8.207432556E-1,2.724334717E-1,9.779313812E0,9.817475140E0
1.389556137E1,-1.003363495E0,3.405418396E-1,9.836644592E0,9.893547588E0
1.390550938E1,-1.078507233E0,3.924838257E-1,9.889933777E0,9.956305114E0
1.391545638E1,-1.042132874E0,4.387376404E-1,9.919721832E0,9.983957776E0
1.392540437E1,-8.795709229E-1,4.578977966E-1,9.933792572E0,9.983163340E0
1.393535138E1,-6.915618896E-1,4.647834778E-1,9.827812958E0,9.863071989E0
1.394529938E1,-4.938230896E-1,4.800517273E-1,9.652078400E0,9.676617608E0
1.395524737E1,-3.400927734E-1,5.068460083E-1,9.497300262E0,9.516893834E0
1.396519438E1,-2.601589966E-1,5.676196289E-1,9.366622009E0,9.387410858E0
1.397514238E1,-1.736389160E-1,6.481521606E-1,9.349108429E0,9.373157425E0
1.398508937E1,-1.260379028E-1,6.945556641E-1,9.375303955E0,9.401841169E0
1.399503738E1,-9.340576172E-2,7.812254333E-1,9.420210571E0,9.453010368E0
1.400498538E1,-6.511459351E-2,8.490344238E-1,9.454638977E0,9.492907750E0
1.401493237E1,-9.774673462E-2,9.044192505E-1,9.459578705E0,9.503218291E0
1.402488038E1,-8.023315430E-2,1.015637970E0,9.332343292E0,9.387789365E0
1.403482838E1,-1.309776306E-1,1.098565521E0,9.147777100E0,9.214435805E0
1.404477537E1,-1.766326904E-1,1.122515717E0,9.044940948E0,9.116040665E0
1.405472338E1,-2.047741699E-1,1.178199921E0,9.051227875E0,9.129885736E0
1.406467038E1,-1.941462708E-1,1.258732452E0,9.241631927E0,9.328979625E0
1.407461837E1,-1.068777466E-1,1.379980316E0,9.456884308E0,9.557637226E0
1.408456638E1,5.763015747E-2,1.442849579E0,9.520052948E0,9.628943051E0
1.409451338E1,1.999841309E-1,1.546434174E0,9.473050690E0,9.600528198E0
1.410446137E1,2.634521484E-1,1.705702972E0,9.320218506E0,9.478676208E0
1.411440837E1,2.576142883E-1,1.843566284E0,9.216783600E0,9.402882627E0
1.412435638E1,2.875520325E-1,1.954934692E0,9.226363678E0,9.435583847E0
1.413430438E1,1.329235840E-1,1.967059479E0,9.409582672E0,9.613908557E0
1.414425137E1,-1.999841309E-1,1.959874420E0,9.762997742E0,9.959780434E0
1.415419938E1,-4.279600525E-1,2.059267731E0,1.006491989E1,1.028233173E1
1.416414738E1,-6.071374512E-1,2.132016449E0,1.017359390E1,1.041230632E1
1.417409437E1,-8.346643066E-1,2.062860260E0,1.026475433E1,1.050320134E1
1.418404238E1,-8.602610779E-1,1.933080139E0,1.033346146E1,1.054785635E1
1.419398938E1,-6.985972595E-1,1.760339355E0,1.055844360E1,1.072695502E1
1.420393737E1,-6.616241455E-1,1.535806274E0,1.086785019E1,1.099575442E1
1.421388538E1,-7.053332520E-1,1.348096619E0,1.108250381E1,1.118645387E1
1.422383238E1,-7.505392456E-1,1.215322723E0,1.127844635E1,1.136853863E1
1.423378037E1,-7.652087402E-1,1.190324707E0,1.138457565E1,1.147218288E1
1.424372738E1,-6.929090881E-1,1.283730469E0,1.119162689E1,1.128630141E1
1.425367538E1,-5.992039490E-1,1.465452576E0,1.076546310E1,1.088125877E1
1.426362337E1,-6.641688538E-1,1.628613281E0,1.036010605E1,1.050834425E1
1.427357038E1,-1.037043457E0,1.545536041E0,1.016401382E1,1.033302075E1
1.428351838E1,-1.476529541E0,1.307231598E0,1.020413040E1,1.039294334E1
1.429346637E1,-1.597777405E0,1.080602875E0,1.045186523E1,1.062836215E1
1.430341338E1,-1.276844788E0,8.681945801E-1,1.078357544E1,1.089355744E1
1.431336138E1,-8.684939575E-1,5.397775269E-1,1.106439148E1,1.111154356E1
1.432330837E1,-5.649252319E-1,1.026864624E-1,1.121812180E1,1.123280649E1
1.433325638E1,-3.394940186E-1,-2.487826538E-1,1.123174347E1,1.123962679E1
1.434320438E1,-1.835183716E-1,-3.760180664E-1,1.110705276E1,1.111493094E1
1.435315137E1,-1.026864624E-1,-3.712280273E-1,1.080707657E1,1.081393817E1
1.436309938E1,-1.410067749E-1,-2.839595032E-1,1.048719177E1,1.049198300E1
1.437304738E1,-2.222877502E-1,-1.812730408E-1,1.016491196E1,1.016895800E1
1.438299437E1,-1.950444031E-1,-1.034349060E-1,9.814041595E0,9.816524514E0
1.439294238E1,-3.532653809E-2,-7.634124756E-3,9.427994385E0,9.428063659E0
1.440288938E1,1.273851013E-1,8.547225952E-2,9.076974335E0,9.078270515E0
1.441283737E1,2.513273621E-1,1.484912109E-1,8.810678101E0,8.815512672E0
1.442278538E1,3.314108276E-1,1.396595764E-1,8.641679535E0,8.649159677E0
1.443273238E1,3.921844482E-1,1.267863464E-1,8.637637939E0,8.647466253E0
1.444268037E1,3.966751099E-1,1.552272034E-1,8.764424286E0,8.774769495E0
1.445262738E1,3.664379883E-1,2.233355713E-1,8.885073395E0,8.895430558E0
1.446257538E1,3.043171692E-1,2.344125366E-1,8.973389740E0,8.981607963E0
1.447252337E1,2.453398132E-1,2.209405518E-1,9.062005463E0,9.068017940E0
1.448247038E1,1.535806274E-1,1.892065430E-1,9.132808228E0,9.136058901E0
1.449241838E1,8.427474976E-2,2.136058044E-1,9.221573639E0,9.224432235E0
1.450236637E1,-2.335144043E-2,2.778222656E-1,9.284742279E0,9.288927263E0
1.451231338E1,-9.580078125E-2,3.674858093E-1,9.291029205E0,9.298787410E0
1.452226138E1,-1.389111328E-1,4.162843323E-1,9.269174652E0,9.279557515E0
1.453220837E1,-1.407073975E-1,4.694238281E-1,9.264983368E0,9.277934798E0
1.454215638E1,-9.175918579E-2,5.468128967E-1,9.258397064E0,9.274984652E0
1.455210438E1,-6.750961304E-2,5.995033264E-1,9.356293488E0,9.375723418E0
1.456205137E1,-1.017883301E-2,6.201603699E-1,9.580078125E0,9.600135383E0
1.457199938E1,1.442999268E-1,6.477030945E-1,9.751621399E0,9.774173197E0
1.458194738E1,3.451821899E-1,7.051835632E-1,9.840386810E0,9.871658786E0
1.459189437E1,4.857398987E-1,8.096662903E-1,9.660011902E0,9.706046193E0
1.460184238E1,5.099894714E-1,8.878038025E-1,9.357640686E0,9.413486286E0
1.461178938E1,5.486091614E-1,9.684860229E-1,9.031319275E0,9.099651918E0
1.462173738E1,5.858816528E-1,1.093176727E0,8.799002380E0,8.885985345E0
1.463168538E1,7.231462097E-1,1.230441284E0,8.642128601E0,8.759184491E0
1.464163238E1,8.334667969E-1,1.323996735E0,8.518934784E0,8.661401971E0
1.465158038E1,9.032217407E-1,1.401535492E0,8.488547974E0,8.650754762E0
1.466152737E1,9.734257507E-1,1.475481720E0,8.446186066E0,8.629175109E0
1.467147538E1,1.022373962E0,1.569037170E0,8.409212952E0,8.615218432E0
1.468142338E1,9.993218994E-1,1.626218262E0,8.358917542E0,8.574073277E0
1.469137037E1,9.363029480E-1,1.691632233E0,8.254135437E0,8.477560653E0
1.470131838E1,8.137078857E-1,1.803449707E0,8.141270142E0,8.378235547E0
1.471126638E1,6.703060913E-1,1.873653717E0,8.166118469E0,8.405080568E0
1.472121337E1,5.918692017E-1,1.907782745E0,8.275241547E0,8.512905897E0
1.473116138E1,6.048921204E-1,1.883233795E0,8.465944977E0,8.693945500E0
1.474110938E1,6.721023560E-1,1.836680603E0,8.695567474E0,8.912800397E0
1.475105637E1,7.545808411E-1,1.786534882E0,8.975934448E0,9.183054957E0
1.476100438E1,8.535250854E-1,1.732796631E0,9.301208038E0,9.499661058E0
1.477095138E1,8.548722839E-1,1.670825500E0,9.587562561E0,9.769535318E0
1.478089971E1,8.631051636E-1,1.706301727E0,9.755213928E0,9.940855843E0
1.479084771E1,8.129594421E-1,1.779349823E0,9.821975098E0,1.001489809E1
1.480079471E1,7.717950439E-1,1.823208618E0,9.846823425E0,1.004388813E1
1.481074271E1,8.867559814E-1,1.907333679E0,9.751621399E0,9.975889827E0
1.482069071E1,9.559121704E-1,1.991159363E0,9.636211395E0,9.886104073E0
1.483063771E1,1.025068359E0,2.045945435E0,9.422904968E0,9.696793073E0
1.484058571E1,1.031055908E0,2.130669250E0,9.236692200E0,9.535161799E0
1.485053271E1,9.761201477E-1,2.233355713E0,9.134604492E0,9.454188887E0
1.486048071E1,9.331594849E-1,2.322270813E0,9.065747681E0,9.404866260E0
1.487042871E1,1.018182678E0,2.397713928E0,9.055419159E0,9.422650593E0
1.488037571E1,1.063688049E0,2.416724396E0,9.119186554E0,9.493763873E0
1.489032371E1,1.080004120E0,2.380649414E0,9.241781616E0,9.604396284E0
1.490027171E1,1.017284546E0,2.360740814E0,9.377100220E0,9.723064001E0
1.491021871E1,8.969348145E-1,2.335144043E0,9.511371002E0,9.834814086E0
1.492016671E1,6.920109558E-1,2.298470306E0,9.508526917E0,9.806830733E0
1.493011371E1,4.303550720E-1,2.201621704E0,9.531878357E0,9.792295371E0
1.494006171E1,3.242257690E-1,2.040406952E0,9.642797699E0,9.861639333E0
1.495000971E1,2.124082947E-1,1.826202393E0,9.991572418E0,1.015931355E1
1.495995671E1,1.172062683E-1,1.573976898E0,1.041938278E1,1.053824834E1
1.496990471E1,7.843688965E-2,1.407223663E0,1.072669373E1,1.081889038E1
1.497985271E1,1.110690308E-1,1.382974091E0,1.079854431E1,1.088730972E1
1.498979971E1,3.577560425E-2,1.397044830E0,1.062969543E1,1.072116781E1
1.499974771E1,-2.612068176E-1,1.249451752E0,1.048719177E1,1.056458944E1
1.500969471E1,-5.087919617E-1,1.049317932E0,1.042851379E1,1.049351406E1
1.501964271E1,-5.426216125E-1,9.568103027E-1,1.044991928E1,1.050765136E1
1.502959071E1,-4.866380310E-1,1.014141083E0,1.037058426E1,1.043141010E1
1.503953771E1,-4.890330505E-1,1.125958557E0,1.020936951E1,1.028290629E1
1.504948571E1,-6.036946106E-1,1.146615601E0,1.004710693E1,1.013032735E1
1.505943371E1,-7.696994019E-1,1.073567505E0,9.913434906E0,1.000105874E1
1.506938071E1,-8.990304565E-1,9.876461792E-1,9.855056305E0,9.945141302E0
1.507932871E1,-9.566606140E-1,8.857081604E-1,9.938432922E0,1.002357857E1
1.508927571E1,-9.907896423E-1,7.229965210E-1,1.018107834E1,1.025469377E1
1.509922371E1,-1.014889526E0,5.406756592E-1,1.048794022E1,1.055079243E1
1.510917171E1,-9.177415466E-1,4.246669006E-1,1.070603668E1,1.075368834E1
1.511911871E1,-7.842192078E-1,5.098397827E-1,1.068014053E1,1.072102319E1
1.512906671E1,-7.626640320E-1,6.330335999E-1,1.050425629E1,1.055091409E1
1.513901471E1,-7.104226685E-1,7.551795959E-1,1.011267059E1,1.016568262E1
1.514896171E1,-7.044351196E-1,8.931925964E-1,9.698032837E0,9.764520611E0
1.515890971E1,-7.878117371E-1,1.023421783E0,9.415719910E0,9.503884516E0
1.516885771E1,-8.336164856E-1,1.141077118E0,9.318272552E0,9.424817070E0
1.517880471E1,-8.358618164E-1,1.223705292E0,9.256151733E0,9.374031392E0
1.518875271E1,-7.472460938E-1,1.315314789E0,9.307944031E0,9.430071675E0
1.519869971E1,-6.355783081E-1,1.405577087E0,9.370962982E0,9.497081338E0
1.520864771E1,-5.152285767E-1,1.480870514E0,9.370364227E0,9.500640174E0
1.521859571E1,-4.504133606E-1,1.483564911E0,9.352551270E0,9.480192629E0
1.522854271E1,-3.876937866E-1,1.506616974E0,9.335337067E0,9.464075197E0
1.523849071E1,-3.715274048E-1,1.591789856E0,9.251960449E0,9.395243462E0
1.524843871E1,-5.086422729E-1,1.687740326E0,9.185348969E0,9.352957823E0
1.525838571E1,-6.524931335E-1,1.825903015E0,9.040450287E0,9.246048372E0
1.526833371E1,-7.976911926E-1,1.962568817E0,8.895701294E0,9.144478613E0
1.527828071E1,-9.535171509E-1,2.068099365E0,8.796607361E0,9.086612735E0
1.528822871E1,-1.095721436E0,2.154020691E0,8.735534363E0,9.063662130E0
1.529817671E1,-1.095422058E0,2.238894196E0,8.772806854E0,9.120018465E0
1.530812371E1,-1.002016296E0,2.310146027E0,8.863667908E0,9.214413714E0
1.531807171E1,-8.461903381E-1,2.286345520E0,9.083410950E0,9.404880031E0
1.532801971E1,-7.671546936E-1,2.251468048E0,9.388476563E0,9.685098185E0
1.533796671E1,-7.298822021E-1,2.247725830E0,9.656419373E0,9.941400029E0
1.534791471E1,-7.002438354E-1,2.286794586E0,9.846524048E0,1.013280843E1
1.535786171E1,-7.418572998E-1,2.352208557E0,9.911339264E0,1.021361265E1
1.536780971E1,-8.581654358E-1,2.409239960E0,9.825118561E0,1.015252874E1
1.537775771E1,-9.942324829E-1,2.427052917E0,9.681716766E0,1.003068909E1
1.538770471E1,-1.118025055E0,2.475552063E0,9.658515015E0,1.003320738E1
1.539765271E1,-1.107397156E0,2.511327667E0,9.719138947E0,1.009924537E1
1.540760071E1,-1.026265869E0,2.531385956E0,9.798174591E0,1.017179246E1
1.541754771E1,-9.372010803E-1,2.490221558E0,9.872420197E0,1.022468727E1
1.542749571E1,-7.653584290E-1,2.480940857E0,9.854008484E0,1.019030541E1
1.543744371E1,-5.869294739E-1,2.489473114E0,9.950258331E0,1.027373367E1
1.544739071E1,-4.707710266E-1,2.538720703E0,1.002704865E1,1.035415051E1
1.545733871E1,-4.864883423E-1,2.544708252E0,1.010338989E1,1.043027796E1
1.546728571E1,-5.438191223E-1,2.521656189E0,1.022329056E1,1.054372605E1
1.547723371E1,-6.092330933E-1,2.500250702E0,1.036519547E1,1.067987339E1
1.548718171E1,-6.445596313E-1,2.439776459E0,1.054467224E1,1.084242035E1
1.549712871E1,-6.840774536E-1,2.401007080E0,1.074750046E1,1.103365592E1
1.550707671E1,-7.032376099E-1,2.378254395E0,1.090452393E1,1.118299062E1
1.551702471E1,-5.998027039E-1,2.346969452E0,1.088955505E1,1.115573566E1
1.552697171E1,-3.471281433E-1,2.385589142E0,1.070019882E1,1.096839953E1
1.553691971E1,-1.811233521E-2,2.515968018E0,1.051443512E1,1.081127971E1
1.554686671E1,3.733236694E-1,2.587519226E0,1.028421387E1,1.061129969E1
1.555681471E1,6.875202942E-1,2.606978760E0,1.008452911E1,1.043871399E1
1.556676271E1,5.697152710E-1,2.409539337E0,1.006866211E1,1.036862633E1
1.557670971E1,5.748046875E-2,2.083816681E0,1.017748581E1,1.038878305E1
1.558665771E1,-3.071612549E-1,1.847308502E0,1.034139496E1,1.050958355E1
1.559660571E1,-4.246669006E-1,1.638792114E0,1.072310120E1,1.085591456E1
1.560655271E1,-4.670288086E-1,1.352736969E0,1.118219650E1,1.127339930E1
1.561650071E1,-3.968247986E-1,1.038240967E0,1.155522079E1,1.160855468E1
1.562644871E1,-1.881587219E-1,7.888595581E-1,1.175535461E1,1.178329603E1
1.563639571E1,1.945953369E-3,6.105802917E-1,1.179352524E1,1.180932046E1
1.564634371E1,1.484912109E-1,4.794529724E-1,1.156225616E1,1.157314531E1
1.565629071E1,1.766326904E-1,4.598437500E-1,1.104283630E1,1.105381785E1
1.566623871E1,2.609074402E-1,6.188131714E-1,1.042267593E1,1.044428916E1
1.567618671E1,4.134402466E-1,8.596623230E-1,9.791737976E0,9.838093552E0
1.568613371E1,4.626878357E-1,1.006956024E0,9.292975159E0,9.358815511E0
1.569608171E1,5.800437927E-1,1.080153809E0,8.991053009E0,9.074261252E0
1.570602971E1,7.716453552E-1,1.161883850E0,8.903485107E0,9.012072885E0
1.571597671E1,8.937913513E-1,1.195563812E0,8.987759857E0,9.110876086E0
1.572592471E1,9.421408081E-1,1.165476379E0,9.191935272E0,9.313304384E0
1.573587271E1,9.626481628E-1,1.100062408E0,9.395362244E0,9.508399470E0
1.574581971E1,9.677375793E-1,1.013692017E0,9.451345825E0,9.554686046E0
1.575576771E1,9.123527527E-1,9.589059448E-1,9.417516174E0,9.510073556E0
1.576571471E1,7.755372620E-1,9.584568787E-1,9.364226990E0,9.445043396E0
1.577566283E1,6.632707214E-1,1.021176453E0,9.278455353E0,9.358015983E0
1.578561083E1,5.424719238E-1,1.052012329E0,9.232949982E0,9.308510681E0
1.579555783E1,4.423301697E-1,1.049168243E0,9.167985077E0,9.238417632E0
1.580550583E1,3.468287659E-1,1.107696533E0,9.019793243E0,9.094171318E0
1.581545383E1,3.332070923E-1,1.185235291E0,8.831933899E0,8.917335143E0
1.582540083E1,4.047583008E-1,1.224902802E0,8.656199341E0,8.751799997E0
1.583534883E1,4.733157349E-1,1.242865448E0,8.535849609E0,8.638835041E0
1.584529683E1,5.128335571E-1,1.274000702E0,8.482261047E0,8.592719507E0
1.585524383E1,5.141807556E-1,1.342857513E0,8.495134277E0,8.615970899E0
1.586519183E1,4.914280701E-1,1.432970123E0,8.484506378E0,8.618686292E0
1.587513883E1,4.161346436E-1,1.500629425E0,8.510402527E0,8.651705490E0
1.588508683E1,3.631448364E-1,1.563348999E0,8.562494202E0,8.711615305E0
1.589503483E1,4.306544495E-1,1.630559235E0,8.605903931E0,8.769593442E0
1.590498183E1,4.809498596E-1,1.699565735E0,8.599467316E0,8.778990521E0
1.591492983E1,5.629792786E-1,1.749112701E0,8.519683228E0,8.715580486E0
1.592487783E1,6.367758179E-1,1.827250214E0,8.395441589E0,8.615553741E0
1.593482483E1,5.860313416E-1,1.886826324E0,8.315358124E0,8.546854804E0
1.594477283E1,5.872288513E-1,1.913171539E0,8.265960846E0,8.504773470E0
1.595472083E1,5.834866333E-1,1.893562317E0,8.312663727E0,8.545549317E0
1.596466783E1,5.905220032E-1,1.862576752E0,8.450826416E0,8.673775159E0
1.597461583E1,6.258485413E-1,1.822609863E0,8.576864319E0,8.790687951E0
1.598456283E1,6.658154297E-1,1.822609863E0,8.763675842E0,8.975925087E0
1.599451083E1,7.102729797E-1,1.849553833E0,8.976383514E0,9.192431565E0
1.600445883E1,6.599775696E-1,1.895059204E0,9.198072510E0,9.414422854E0
1.601440583E1,5.385800171E-1,1.951192474E0,9.356443176E0,9.572891382E0
1.602435383E1,3.603007507E-1,1.995799713E0,9.425449677E0,9.641168743E0
1.603430183E1,1.308279419E-1,1.985321503E0,9.498048706E0,9.704202525E0
1.604424883E1,-2.859054565E-2,1.893712006E0,9.677076416E0,9.860667855E0
1.605419683E1,-1.746867371E-1,1.800156555E0,9.949809265E0,1.011285239E1
1.606414483E1,-3.489244080E-1,1.661694489E0,1.030936157E1,1.044824927E1
1.607409183E1,-4.900808716E-1,1.530567169E0,1.060709244E1,1.072815106E1
1.608403983E1,-6.477030945E-1,1.446142731E0,1.078731766E1,1.090307619E1
1.609398783E1,-6.643185425E-1,1.436412964E0,1.081800385E1,1.093315181E1
1.610393483E1,-5.605842590E-1,1.543590088E0,1.069091812E1,1.081631431E1
1.611388283E1,-4.198768616E-1,1.634451141E0,1.050575317E1,1.064042184E1
1.612382983E1,-3.264710999E-1,1.537303162E0,1.043674667E1,1.055440977E1
1.613377783E1,-3.260220337E-1,1.471440125E0,1.046728317E1,1.057522782E1
1.614372583E1,-4.077520752E-1,1.580712891E0,1.064631088E1,1.077074048E1
1.615367283E1,-6.328839111E-1,1.696571960E0,1.102262833E1,1.117037303E1
1.616362083E1,-1.011147308E0,1.650916901E0,1.151884644E1,1.168040105E1
1.617356883E1,-1.414857788E0,1.505269775E0,1.186417831E1,1.204269018E1
1.618351583E1,-1.631457367E0,1.402882690E0,1.198333054E1,1.217497202E1
1.619346383E1,-1.665436707E0,1.376537476E0,1.183828217E1,1.203384641E1
1.620341083E1,-1.636696472E0,1.376687164E0,1.161823975E1,1.181344732E1
1.621335883E1,-1.522633667E0,1.390608215E0,1.118174744E1,1.137029816E1
1.622330683E1,-1.337019653E0,1.488055573E0,1.052940399E1,1.071775533E1
1.623325383E1,-1.121318207E0,1.593286743E0,9.857900391E0,1.004858783E1
1.624320183E1,-1.028211823E0,1.670675812E0,9.319619751E0,9.523848462E0
1.625314983E1,-1.105750580E0,1.670825500E0,8.985963593E0,9.206621741E0
1.626309683E1,-1.146465912E0,1.665736084E0,8.918304291E0,9.144682182E0
1.627304483E1,-9.985734558E-1,1.661245422E0,8.885372772E0,9.094324307E0
1.628299283E1,-7.924520874E-1,1.640438690E0,8.881480865E0,9.066406221E0
1.629293983E1,-5.819897461E-1,1.588646393E0,8.826694794E0,8.987382845E0
1.630288783E1,-3.695814514E-1,1.497485962E0,8.741372223E0,8.876409353E0
1.631283583E1,-2.676434326E-1,1.426982574E0,8.574768677E0,8.696813792E0
1.632278283E1,-3.330574036E-1,1.442400513E0,8.431666260E0,8.560633294E0
1.633273083E1,-3.926335144E-1,1.532363434E0,8.225095825E0,8.375828323E0
1.634267883E1,-4.715194702E-1,1.660646667E0,8.026907959E0,8.210440265E0
1.635262583E1,-5.864804077E-1,1.767374725E0,7.805368652E0,8.024422253E0
1.636257383E1,-6.962022400E-1,1.855541382E0,7.758965149E0,8.008075397E0
1.637252083E1,-8.385562134E-1,1.921105042E0,7.878865814E0,8.152934908E0
1.638246883E1,-9.177415466E-1,1.993255005E0,8.136779480E0,8.427484522E0
1.639241683E1,-8.991801453E-1,2.085762634E0,8.458759918E0,8.758398829E0
1.640236383E1,-8.277786255E-1,2.086211700E0,8.767418060E0,9.050144538E0
1.641231183E1,-7.533833313E-1,2.093546448E0,9.015302582E0,9.285806579E0
1.642225983E1,-6.566844177E-1,2.125729523E0,9.173523560E0,9.439464758E0
1.643220683E1,-5.866300964E-1,2.159708862E0,9.319470062E0,9.584414405E0
1.644215483E1,-5.119354248E-1,2.184108124E0,9.402996368E0,9.666889204E0
1.645210283E1,-4.788542175E-1,2.276316376E0,9.428892517E0,9.711587497E0
1.646204983E1,-4.815486145E-1,2.437082062E0,9.388326874E0,9.711433444E0
1.647199783E1,-4.787045288E-1,2.583028564E0,9.270521851E0,9.635547207E0
1.648194483E1,-4.846920776E-1,2.707120514E0,9.131910095E0,9.537044085E0
1.649189283E1,-5.078938293E-1,2.806962891E0,9.041198730E0,9.480520624E0
1.650184083E1,-4.586462402E-1,2.847079468E0,9.004824371E0,9.455320186E0
1.651178783E1,-3.620970154E-1,2.871179352E0,9.085805969E0,9.535546929E0
1.652173583E1,-2.845582581E-1,2.887495422E0,9.091494141E0,9.543263012E0
1.653168383E1,-2.733316040E-1,2.886297913E0,9.036857758E0,9.490533385E0
1.654163083E1,-2.896476746E-1,2.911894684E0,8.918304291E0,9.386116228E0
1.655157883E1,-2.815644836E-1,2.954406281E0,8.749305725E0,9.238947218E0
1.656152683E1,-1.727407837E-1,3.019520874E0,8.589887238E0,9.106783650E0
1.657147383E1,-6.706054688E-2,3.042423248E0,8.515941010E0,9.043344935E0
1.658142183E1,-3.218307495E-2,3.030298462E0,8.553363190E0,9.074346609E0
1.659136983E1,-1.392105103E-2,3.024310913E0,8.677006073E0,9.188965376E0
