"Time (s)","Acceleration x (m/s^2)","Acceleration y (m/s^2)","Acceleration z (m/s^2)","Absolute acceleration (m/s^2)"
-1.452916767E-4,9.544152832E-1,6.795867920E-1,9.308842163E0,9.382285924E0
9.857708355E-3,9.051676941E-1,5.457650757E-1,9.465416565E0,9.524247940E0
1.986070833E-2,9.934840393E-1,5.075944519E-1,9.878707123E0,9.941504770E0
2.986370830E-2,1.109492798E0,4.357438660E-1,1.035112473E1,1.041953118E1
3.986570833E-2,1.241518250E0,2.546205139E-1,1.074959610E1,1.082404802E1
4.986870830E-2,1.391206970E0,1.083746338E-1,1.094583801E1,1.103442666E1
5.987170833E-2,1.563348999E0,-1.347198486E-3,1.098834961E1,1.109900397E1
6.987470831E-2,1.606758728E0,-1.215472412E-1,1.083821182E1,1.095733922E1
7.987770834E-2,1.789079590E0,-1.682501221E-1,1.096664474E1,1.111289390E1
8.988070831E-2,2.197729797E0,-1.806742859E-1,1.106858276E1,1.128610579E1
9.988370835E-2,2.439477081E0,-2.411485291E-1,1.082294357E1,1.109708559E1
1.098867083E-1,2.569706268E0,-2.636018372E-1,1.040022263E1,1.071622634E1
1.198897084E-1,2.626737671E0,-2.148033142E-1,9.944121094E0,1.028744067E1
1.298927083E-1,2.754272461E0,-3.457809448E-2,9.664951630E0,1.004980111E1
1.398957083E-1,2.814896393E0,1.701960754E-1,9.549841003E0,9.957513324E0
1.498987083E-1,2.722239075E0,2.091151428E-1,9.326954498E0,9.718353510E0
1.599017083E-1,2.588417358E0,-2.224374390E-1,9.075327759E0,9.439859997E0
1.699047083E-1,2.303859100E0,-3.884422302E-1,9.011560364E0,9.309504515E0
1.799067083E-1,2.277663574E0,-1.948947144E-1,8.922944641E0,9.211116999E0
1.899097083E-1,2.639012146E0,2.290237427E-2,9.158255310E0,9.530925975E0
1.999127083E-1,3.391197968E0,-4.056564331E-2,9.400002594E0,9.993093515E0
2.099157083E-1,4.002377014E0,-2.957849121E-1,9.728120270E0,1.052344214E1
2.199187083E-1,3.422183533E0,-2.984793091E-1,1.013542328E1,1.070173982E1
2.299217083E-1,3.219205627E0,-2.791694641E-1,9.974657593E0,1.048498996E1
2.399247083E-1,3.389701080E0,-3.367996216E-1,9.632768555E0,1.021732536E1
2.499277084E-1,3.422632599E0,-3.851490784E-1,9.344767456E0,9.959288756E0
2.599307083E-1,3.339405670E0,-4.477189636E-1,8.848848724E0,9.468590510E0
2.699337083E-1,3.269501038E0,-4.977149963E-1,8.351283417E0,8.982276547E0
2.799367083E-1,3.257975006E0,-5.017565918E-1,8.100105743E0,8.745162884E0
2.899397083E-1,3.260819092E0,-4.174818420E-1,7.889044647E0,8.546593338E0
2.999427083E-1,3.468137970E0,-2.727328491E-1,7.879015503E0,8.612853736E0
3.099457083E-1,3.893553314E0,-1.670526123E-1,8.176596680E0,9.057836234E0
3.199477083E-1,4.029919739E0,-2.676434326E-1,8.336464233E0,9.263288942E0
3.299507083E-1,4.007167053E0,-3.905378723E-1,8.106242981E0,9.051026621E0
3.399537083E-1,4.057013397E0,-4.782554626E-1,8.036188660E0,9.014899565E0
3.499567083E-1,4.214186554E0,-7.595205688E-1,9.217981110E0,1.016402556E1
3.599597084E-1,5.009183350E0,-1.007255402E0,9.687554626E0,1.095240594E1
3.699627083E-1,5.742957458E0,-1.281634827E0,8.660839691E0,1.047063954E1
3.799657083E-1,5.700595551E0,-1.493594055E0,8.650062103E0,1.046667030E1
3.899687083E-1,5.275928650E0,-1.772164764E0,8.937614136E0,1.052886212E1
3.999717083E-1,5.411396942E0,-2.275867310E0,9.176517334E0,1.089363389E1
4.099747083E-1,5.314248962E0,-2.490071869E0,9.234446869E0,1.094151310E1
4.199777083E-1,4.742288361E0,-2.445015564E0,9.372759247E0,1.078499031E1
4.299807083E-1,4.410578156E0,-2.587818604E0,9.499994659E0,1.078887869E1
4.399837083E-1,4.260889435E0,-2.905158691E0,9.499096527E0,1.080869838E1
4.499857083E-1,4.318669281E0,-3.477718048E0,8.936266937E0,1.051676252E1
4.599887083E-1,4.247267761E0,-3.982618103E0,8.145311737E0,1.001232409E1
4.699917083E-1,4.558620300E0,-3.352428589E0,8.216413879E0,9.976434910E0
4.799947083E-1,4.924908600E0,-2.511477356E0,8.435408478E0,1.008555201E1
4.899977084E-1,5.309009857E0,-2.387086029E0,8.455017700E0,1.026504212E1
5.000007083E-1,5.826483765E0,-2.671195221E0,8.067623291E0,1.030387027E1
5.100037083E-1,6.446943512E0,-2.700833588E0,7.586673431E0,1.031577416E1
5.200067083E-1,6.793622589E0,-2.575843506E0,7.627688141E0,1.053422536E1
5.300097083E-1,6.700216827E0,-2.401605835E0,8.096213837E0,1.078004149E1
5.400127083E-1,6.817572784E0,-2.267484741E0,8.036787415E0,1.078010843E1
5.500157083E-1,7.185208282E0,-1.957778778E0,7.354955292E0,1.046687552E1
5.600187083E-1,7.248376923E0,-1.640588379E0,6.345155182E0,9.771974853E0
5.700217083E-1,7.252268829E0,-1.689985657E0,5.286406860E0,9.132226026E0
5.800247084E-1,7.254663849E0,-1.970502319E0,4.883444824E0,8.964433072E0
5.900267083E-1,7.208110657E0,-2.438728638E0,5.091961212E0,9.155999432E0
6.000297084E-1,7.683671722E0,-2.725681915E0,5.283263397E0,9.714989715E0
6.100327083E-1,7.400909729E0,-2.611020355E0,5.690416718E0,9.693901925E0
6.200357083E-1,7.485334167E0,-2.361788635E0,5.926026764E0,9.834941096E0
6.300387083E-1,7.552245026E0,-2.130818939E0,5.739364929E0,9.721990746E0
6.400417083E-1,7.777077484E0,-1.935026093E0,5.307063904E0,9.612085489E0
6.500447083E-1,8.130791931E0,-1.746268616E0,5.233866119E0,9.826117548E0
6.600477083E-1,8.317902832E0,-1.394500122E0,5.210065613E0,9.913471733E0
6.700507083E-1,8.573421478E0,-1.108744354E0,5.152734833E0,1.006397268E1
6.800537083E-1,8.875942383E0,-1.145268402E0,5.231471100E0,1.036640163E1
6.900567084E-1,9.117390289E0,-1.264121246E0,5.251679077E0,1.059740258E1
7.000597083E-1,9.550589447E0,-1.221160583E0,4.757706299E0,1.073968161E1
7.100627084E-1,9.961035919E0,-8.099656677E-1,4.210743713E0,1.084475189E1
7.200657083E-1,1.010937744E1,-1.621128845E-1,3.246448975E0,1.061909713E1
7.300677084E-1,9.794582062E0,1.661544800E-1,2.459834747E0,1.010011050E1
7.400707083E-1,9.550739136E0,-5.360353088E-1,2.882106628E0,9.990520032E0
7.500737083E-1,9.700278168E0,-1.483714600E0,3.024460602E0,1.026860105E1
7.600767083E-1,9.403445435E0,-1.730850677E0,2.844534760E0,9.975570565E0
7.700797083E-1,8.998537445E0,-1.794468384E0,2.717748413E0,9.569741343E0
7.800827083E-1,8.635691986E0,-1.706601105E0,2.592608643E0,9.176561610E0
7.900857083E-1,8.124804382E0,-1.644480286E0,2.029479675E0,8.534374577E0
8.000887083E-1,7.808512115E0,-2.130519562E0,1.415755920E0,8.216832716E0
8.100917083E-1,7.715705109E0,-3.319796448E0,1.375639343E0,8.511494427E0
8.200947084E-1,7.320676575E0,-4.918621674E0,1.836231537E0,9.008711947E0
8.300977083E-1,6.710994415E0,-5.812263336E0,1.889520721E0,9.076901436E0
8.401007083E-1,6.246210938E0,-5.738766174E0,1.355281677E0,8.589841483E0
8.501037083E-1,6.199807434E0,-5.037025452E0,3.143463135E-1,7.994251136E0
8.601067083E-1,6.560706940E0,-3.852388916E0,-9.985734558E-1,7.673390701E0
8.701087083E-1,7.307803345E0,-1.668580170E0,-1.847458191E0,7.720184666E0
8.801117083E-1,8.044122162E0,-8.604107666E-1,-3.339555359E-1,8.096896587E0
8.901147083E-1,9.149872742E0,-1.100062408E0,6.500981140E-1,9.238665274E0
9.001177083E-1,9.953252106E0,-1.103654938E0,1.015338593E0,1.006559458E1
9.101207083E-1,9.675429840E0,-1.569037170E0,1.682650909E0,9.945206600E0
9.201237083E-1,9.257049866E0,-3.458857269E0,1.935026093E0,1.006980595E1
9.301267084E-1,8.721463623E0,-6.082152100E0,2.887345734E0,1.101786128E1
9.401297500E-1,8.337961121E0,-7.715555420E0,3.398832092E0,1.185763259E1
9.501327500E-1,7.741002502E0,-8.983867950E0,3.727548523E0,1.243091393E1
9.601357500E-1,7.239994354E0,-9.941726074E0,3.286565552E0,1.273015902E1
9.701387500E-1,6.544690247E0,-1.028675858E1,3.576961670E0,1.270610197E1
9.801417500E-1,5.698499908E0,-9.863887939E0,3.545377350E0,1.193058620E1
9.901447500E-1,4.324806519E0,-9.106013947E0,2.825374603E0,1.046929716E1
1.000147750E0,4.058659973E0,-8.303682404E0,1.641785889E0,9.387189310E0
1.010150750E0,4.815635834E0,-7.506290588E0,1.824705505E-1,8.920092061E0
1.020152750E0,5.807024231E0,-6.197861481E0,-9.473799133E-1,8.545908147E0
1.030155750E0,7.022197266E0,-5.242697754E0,-1.060095520E0,8.827283653E0
1.040158750E0,7.748786316E0,-4.680616608E0,-4.984634399E-1,9.066439599E0
1.050161750E0,8.118517456E0,-4.312232666E0,5.123844910E-1,9.206965522E0
1.060164750E0,8.344996490E0,-4.498894501E0,1.762135620E0,9.642828428E0
1.070167750E0,8.148754578E0,-4.788392487E0,2.750979309E0,9.843718349E0
1.080170750E0,8.337661743E0,-4.973557434E0,3.349434814E0,1.026993624E1
1.090173750E0,8.139623566E0,-5.090913391E0,3.206482086E0,1.012187721E1
1.100176750E0,7.628735962E0,-5.178032227E0,2.098785553E0,9.455925704E0
1.110179750E0,7.145241394E0,-5.123695221E0,5.586383057E-1,8.810153464E0
1.120182750E0,6.975644073E0,-4.911137238E0,-8.397537231E-1,8.572284732E0
1.130185750E0,6.235133972E0,-4.825215912E0,-1.638492737E0,8.052593538E0
1.140188750E0,5.729335785E0,-4.973258057E0,-1.519340515E0,7.737375513E0
1.150191750E0,4.529131622E0,-5.537434845E0,-1.297352142E0,7.270442937E0
1.160194750E0,4.779710541E0,-6.658303986E0,-7.975415039E-1,8.234969172E0
1.170196750E0,5.219196625E0,-7.621850281E0,1.585203552E-1,9.238925469E0
1.180199750E0,6.209537201E0,-9.242829437E0,1.410666504E0,1.122400233E1
1.190202750E0,7.663613434E0,-1.047267197E1,2.352957001E0,1.318879205E1
1.200205750E0,8.978778534E0,-1.073836945E1,2.342927856E0,1.419226385E1
1.210208750E0,1.133368149E1,-1.096365097E1,1.767374725E0,1.586750113E1
1.220211750E0,1.379127090E1,-1.047761169E1,4.906796265E-1,1.732686545E1
1.230214750E0,1.467997284E1,-1.025876678E1,-1.169218597E0,1.794745025E1
1.240217750E0,1.413315994E1,-9.103020172E0,-2.493814087E0,1.699500794E1
1.250220750E0,1.310404999E1,-7.004683685E0,-3.693419495E0,1.531088068E1
1.260223750E0,1.113429611E1,-4.979395294E0,-4.427942047E0,1.297588526E1
1.270226750E0,1.001716919E1,-4.328848114E0,-4.143383789E0,1.167262754E1
1.280229750E0,9.682315521E0,-4.742288361E0,-3.605851593E0,1.136831995E1
1.290232750E0,9.402098236E0,-5.130730591E0,-3.612437897E0,1.130369653E1
1.300235750E0,8.738827515E0,-5.316643982E0,-3.571872253E0,1.083476262E1
1.310238750E0,7.618257751E0,-6.515800323E0,-3.209924927E0,1.052602124E1
1.320240750E0,6.522985382E0,-8.075556793E0,-2.419718170E0,1.065922098E1
1.330243750E0,5.142705688E0,-9.150920563E0,-2.080074463E0,1.070109708E1
1.340246750E0,4.202810211E0,-1.010279114E1,-1.837728424E0,1.109537058E1
1.350249750E0,3.559597778E0,-9.732610931E0,-2.246827698E-1,1.036556483E1
1.360252750E0,2.035167847E0,-9.504485321E0,-1.778302002E-1,9.721562270E0
1.370255750E0,2.203417969E-1,-9.985734558E0,-8.261320496E-1,1.002227216E1
1.380258750E0,-8.214916992E-1,-9.832153931E0,-4.793032837E-1,9.878047943E0
1.390261750E0,-1.368753662E0,-8.844507751E0,6.527925110E-1,8.973569079E0
1.400264750E0,-1.588197327E0,-6.987619171E0,1.365011444E0,7.294686331E0
1.410267750E0,-9.864486694E-1,-5.708529053E0,1.028511200E0,5.883725029E0
1.420270750E0,-6.858737183E-1,-5.309907990E0,5.629792786E-1,5.383538918E0
1.430273750E0,-8.000862122E-1,-4.430935822E0,3.335064697E-1,4.514925998E0
1.440276750E0,-6.348298645E-1,-4.076622620E0,4.704716492E-1,4.152493770E0
1.450279750E0,1.197509766E-1,-4.289779358E0,-1.266366577E-1,4.293318539E0
1.460282750E0,1.637295227E0,-4.828209686E0,-2.074386292E0,5.504127808E0
1.470284750E0,2.093097382E0,-4.115242310E0,-9.147477722E-1,4.706701542E0
1.480287750E0,2.536625061E0,-3.404520264E0,1.393601990E-1,4.247899033E0
1.490290750E0,3.113974457E0,-3.050207062E0,8.424481201E-1,4.439630488E0
1.500293750E0,3.348686371E0,-2.595003662E0,7.610174561E-1,4.304287628E0
1.510296750E0,4.348756714E0,-3.381468201E0,1.341360626E0,5.669679045E0
1.520299750E0,6.029910736E0,-4.520898743E0,1.919757843E0,7.777134376E0
1.530302750E0,7.468868408E0,-4.841232605E0,2.484683075E0,9.240951164E0
1.540305750E0,7.730823669E0,-6.905889130E0,2.361489258E0,1.063172473E1
1.550308750E0,7.509583740E0,-1.102996307E1,8.053253174E-2,1.334392816E1
1.560311750E0,6.550528107E0,-1.606249786E1,-1.723515930E0,1.743226214E1
1.570314750E0,4.937033386E0,-2.010229706E1,-3.438200226E0,2.098327588E1
1.580317750E0,3.179538116E0,-2.347193985E1,-4.187541962E0,2.405362614E1
1.590320750E0,2.219434662E0,-2.476180756E1,-3.578308868E0,2.511727091E1
1.600323750E0,2.640059967E0,-2.458652206E1,-2.467169495E0,2.485063197E1
1.610326750E0,2.170935516E0,-2.245420624E1,-8.184979248E-1,2.257375196E1
1.620329750E0,8.913963318E-1,-1.960922241E1,8.232879639E-2,1.962964516E1
1.630332750E0,-7.247927856E-1,-1.616219055E1,4.046086121E-1,1.618349271E1
1.640334750E0,-1.687890015E0,-1.267728745E1,-4.760101318E-2,1.278924765E1
1.650337750E0,-1.710942078E0,-9.331145782E0,-2.812651062E-1,9.490875327E0
1.660340750E0,-2.765798492E0,-6.946454773E0,2.234852600E-1,7.480161821E0
1.670343750E0,-3.551813965E0,-5.778134308E0,6.538403320E-1,6.813936139E0
1.680346750E0,-3.529510345E0,-4.496798859E0,9.249266052E-1,5.790866298E0
1.690349750E0,-4.093687134E0,-3.145858154E0,1.461860046E0,5.365792828E0
1.700352750E0,-4.897066498E0,-3.615281982E0,2.380649414E0,6.535978559E0
1.710355750E0,-5.899382172E0,-4.650080109E0,3.185974731E0,8.159435643E0
1.720358750E0,-6.321953430E0,-5.395080872E0,3.759432220E0,9.121804833E0
1.730361750E0,-7.125183105E0,-6.338868256E0,4.563410339E0,1.057233177E1
1.740364750E0,-7.868088226E0,-7.584577789E0,5.045557709E0,1.203703806E1
1.750367750E0,-8.212072906E0,-9.309889984E0,6.184838562E0,1.386955014E1
1.760370750E0,-8.211174774E0,-1.104373444E1,6.020330658E0,1.502104666E1
1.770373750E0,-7.523804169E0,-1.196806229E1,4.306694183E0,1.477801607E1
1.780376750E0,-6.953490143E0,-1.256951157E1,2.668650513E0,1.461045317E1
1.790379750E0,-6.061495056E0,-1.284643570E1,8.077203369E-1,1.422761556E1
1.800382750E0,-4.882995758E0,-1.284688477E1,-1.659898224E0,1.384345903E1
1.810384750E0,-3.565884705E0,-1.195099777E1,-3.348087616E0,1.291323244E1
1.820387750E0,-2.363135834E0,-1.091290649E1,-4.594545593E0,1.207417858E1
1.830390750E0,-1.480421448E0,-1.011551468E1,-5.615572357E0,1.166404466E1
1.840393750E0,-1.016685791E0,-9.449549561E0,-5.790558472E0,1.112916009E1
1.850396750E0,-1.023272095E0,-9.019793243E0,-4.799319763E0,1.026826305E1
1.860399750E0,-1.214274902E0,-8.650062103E0,-3.240910492E0,9.316734339E0
1.870402750E0,-1.385967865E0,-8.353079681E0,-1.603615265E0,8.617797225E0
1.880405750E0,-1.682650909E0,-8.166717224E0,8.816665649E-2,8.338726381E0
1.890408750E0,-2.153421936E0,-7.666756897E0,1.365460510E0,8.079657775E0
1.900411750E0,-2.498903503E0,-6.964267731E0,2.049537964E0,7.677639586E0
1.910414750E0,-2.526895294E0,-6.200256500E0,2.301913147E0,7.080055412E0
1.920417750E0,-2.153871002E0,-5.463039551E0,2.117346954E0,6.242364901E0
1.930420750E0,-1.483415222E0,-4.751718750E0,1.791474609E0,5.290437891E0
1.940423583E0,-9.316625977E-1,-4.145329742E0,9.934840393E-1,4.363343260E0
1.950426583E0,-4.022135925E-1,-3.965403900E0,-4.659809875E-1,4.012896977E0
1.960429583E0,6.316864014E-2,-4.144880676E0,-1.402433624E0,4.376167978E0
1.970431583E0,2.906954956E-1,-4.418511658E0,-1.454674988E0,4.660882798E0
1.980434583E0,3.525169373E-1,-4.893324280E0,-1.121916962E0,5.032652220E0
1.990437583E0,4.263134766E-1,-5.704337769E0,-1.213526459E0,5.847551541E0
2.000440583E0,2.670446777E-1,-6.785689087E0,-1.329684906E0,6.919895317E0
2.010443583E0,-2.336640930E-1,-8.187074890E0,-2.274370422E0,8.500326757E0
2.020446583E0,-4.906796265E-1,-9.968220978E0,-4.416266327E0,1.091373466E1
2.030449583E0,-6.668632507E-1,-1.149699188E1,-5.388045502E0,1.271442343E1
2.040452583E0,-9.342073059E-1,-1.226863724E1,-3.904031525E0,1.290866628E1
2.050455583E0,-1.294208679E0,-1.312156357E1,-2.157463531E0,1.336057841E1
2.060458583E0,-1.739083557E0,-1.395158752E1,-5.670208740E-1,1.407098855E1
2.070461583E0,-2.271975403E0,-1.448717377E1,2.814147949E-2,1.466427182E1
2.080464583E0,-2.486629028E0,-1.482951187E1,-9.630972290E-1,1.506735884E1
2.090467583E0,-2.096240845E0,-1.513981659E1,-2.546055450E0,1.549485948E1
2.100470583E0,-2.053429871E0,-1.585158646E1,-3.353177032E0,1.633196754E1
2.110473583E0,-2.967878265E0,-1.617596191E1,-1.861528931E0,1.655099197E1
2.120476583E0,-4.088747406E0,-1.664882858E1,5.981561279E-1,1.715398319E1
2.130479583E0,-5.245392151E0,-1.879072449E1,2.092348938E0,1.962099359E1
2.140481583E0,-6.426136780E0,-2.254746231E1,3.092119904E0,2.364835081E1
2.150484583E0,-7.310048676E0,-2.642484924E1,4.114044800E0,2.772426435E1
2.160487583E0,-7.548951874E0,-2.896371964E1,4.352798309E0,3.024616641E1
2.170490583E0,-7.402107239E0,-2.855866196E1,3.525917816E0,2.971229477E1
2.180493583E0,-6.378386078E0,-2.410048279E1,2.105072479E0,2.501896100E1
2.190496583E0,-5.146896973E0,-1.995679962E1,5.812413025E-1,2.061800769E1
2.200499583E0,-4.587061157E0,-1.744053223E1,-1.576970673E0,1.810248963E1
2.210502583E0,-3.965703278E0,-1.554652084E1,-4.189188538E0,1.658223186E1
2.220505583E0,-2.813549194E0,-1.411205383E1,-6.489155731E0,1.578528633E1
2.230508583E0,-1.191222839E0,-1.280377441E1,-7.541916504E0,1.490758718E1
2.240511583E0,-3.692820740E-1,-1.134460876E1,-7.225474548E0,1.345525918E1
2.250514583E0,-2.650987244E-1,-9.613309021E0,-6.164780273E0,1.142324400E1
2.260517583E0,-5.388793945E-3,-7.562573547E0,-5.715714111E0,9.479553550E0
2.270520583E0,3.350033569E-1,-5.281018066E0,-6.054010620E0,8.040673085E0
2.280523583E0,5.736071777E-1,-3.117117920E0,-6.639143829E0,7.356879781E0
2.290526583E0,5.766009521E-1,-1.408570862E0,-6.777605896E0,6.946400666E0
2.300529583E0,3.845503235E-1,-1.856140137E-1,-5.926326141E0,5.941689410E0
2.310531583E0,3.457809448E-1,3.637435913E-1,-4.077969818E0,4.108736022E0
2.320534583E0,4.873864746E-1,7.280859375E-1,-2.129920807E0,2.303088655E0
2.330537583E0,5.023553467E-1,1.107846222E0,-3.339555359E-1,1.261431903E0
2.340540583E0,7.304809570E-1,1.433568878E0,1.399140472E0,2.132209234E0
2.350543583E0,1.461261292E0,1.536105652E0,2.938389587E0,3.623401510E0
2.360546583E0,1.765428772E0,1.369651794E0,3.397484894E0,4.066397471E0
2.370549583E0,1.504521332E0,1.204994202E0,2.589764557E0,3.228385963E0
2.380552583E0,1.121018829E0,1.084644470E0,1.784888306E0,2.370435215E0
2.390555583E0,8.587641907E-1,9.487271118E-1,1.328337708E0,1.844462017E0
2.400558583E0,7.113208008E-1,8.608598328E-1,9.580078125E-1,1.471338133E0
2.410561583E0,6.289920044E-1,8.111631775E-1,8.551716614E-1,1.336014675E0
2.420564583E0,6.298901367E-1,7.812254333E-1,1.001866608E0,1.418030839E0
2.430567583E0,6.343807983E-1,6.945556641E-1,1.146765289E0,1.483211784E0
2.440570583E0,5.266049194E-1,6.331832886E-1,1.369352417E0,1.597923609E0
2.450573583E0,4.255650330E-1,6.185137939E-1,1.752405853E0,1.906460381E0
2.460576583E0,3.956272888E-1,6.137237549E-1,1.984872437E0,2.114922313E0
2.470578583E0,4.394860840E-1,6.409671021E-1,1.909429321E0,2.061530300E0
2.480581583E0,4.508624268E-1,6.405180359E-1,1.631756744E0,1.810019435E0
2.490584583E0,3.725752258E-1,5.917195129E-1,1.323697357E0,1.497036731E0
2.500587583E0,1.067280579E-1,3.849993896E-1,8.601113892E-1,9.483707134E-1
2.510590583E0,7.274871826E-2,4.969665527E-2,4.167333984E-1,4.259446665E-1
2.520593583E0,2.757266235E-1,-2.716850281E-1,1.480421448E-1,4.144326267E-1
2.530596583E0,4.751119995E-1,-3.999682617E-1,2.902464294E-1,6.855282724E-1
2.540599583E0,7.122189331E-1,-6.905140686E-1,8.388555908E-1,1.299132091E0
2.550602583E0,1.203048248E0,-1.445244598E0,1.879491577E0,2.658673659E0
2.560605583E0,9.737251282E-1,-8.347391510E0,3.714226227E0,9.188175124E0
2.570608583E0,-6.788682861E0,-3.287763062E1,7.548652496E0,3.440940227E1
2.580611583E0,-1.284838165E1,-6.210360489E1,1.674687469E1,6.559265556E1
2.590614583E0,-1.393856461E1,-7.770655838E1,9.485025787E0,7.951451762E1
2.600617583E0,-5.425018616E0,-7.522950943E1,-2.089265350E1,7.826501700E1
2.610620583E0,3.529809723E0,-5.046964783E1,-4.556644409E1,6.808777964E1
2.620623583E0,-3.201093292E0,-2.489817398E1,-1.644420410E1,3.000963036E1
2.630626583E0,-4.644541626E0,-1.694072159E1,3.922892303E0,1.799858047E1
2.640628583E0,-4.623285828E0,-1.077444443E1,9.501491547E0,1.509111547E1
2.650631583E0,-4.882846069E0,-5.948031006E0,1.037552399E1,1.291792385E1
2.660634583E0,-4.502636719E0,-2.631378021E0,8.581055603E0,1.004153390E1
2.670637583E0,-3.891307983E0,-3.969744873E-1,6.137836304E0,7.278248488E0
2.680640583E0,-2.997666321E0,4.330494690E-1,3.935316467E0,4.965908871E0
2.690643583E0,-1.920506287E0,9.460327148E-1,2.556234283E0,3.334314923E0
2.700646583E0,-1.322200470E0,1.204096069E0,1.681154022E0,2.454453152E0
2.710649583E0,-1.007854156E0,1.153650970E0,7.978408813E-1,1.727203125E0
2.720652583E0,-8.304730225E-1,1.068927155E0,1.532812500E-1,1.362272309E0
2.730655583E0,-7.297325134E-1,1.110540619E0,-1.504371643E-1,1.337326193E0
2.740658583E0,-5.995033264E-1,1.249302063E0,-2.827619934E-1,1.414253947E0
2.750661583E0,-3.944297791E-1,1.029259644E0,-1.999841309E-1,1.120242794E0
2.760664583E0,-3.586541748E-1,1.769320679E-1,-1.860630798E-1,4.410864353E-1
2.770667583E0,-5.204676819E-1,-4.382885742E-1,-1.197509766E-2,6.805342645E-1
2.780670583E0,-6.390211487E-1,-7.491920471E-1,3.197351074E-1,1.035310239E0
2.790673583E0,-1.109193420E0,-1.917512512E0,4.254153442E-1,2.255691134E0
2.800675583E0,-2.302062836E0,-5.656138000E0,3.366499329E-1,6.115940120E0
2.810678583E0,-3.310665436E0,-1.066547104E1,4.161346436E-2,1.116756508E1
2.820681583E0,-4.092639313E0,-1.585547836E1,7.140151978E-2,1.637531645E1
2.830684583E0,-5.109774170E0,-2.123424316E1,6.993457031E-1,2.185158940E1
2.840687583E0,-5.605692902E0,-2.516911057E1,1.470841370E0,2.582772336E1
2.850690583E0,-4.874463501E0,-2.600227798E1,1.124461670E0,2.647911005E1
2.860693583E0,-2.913990326E0,-2.174363388E1,-1.148561554E0,2.196807109E1
2.870696583E0,-1.481918335E0,-1.537243286E1,-3.364253998E0,1.580588432E1
2.880699583E0,-8.849597168E-1,-1.172736282E1,-3.768563232E0,1.234974742E1
2.890702583E0,-6.358776855E-1,-9.548493805E0,-2.723735962E0,9.949714165E0
2.900705583E0,-7.077282715E-1,-8.051756287E0,-1.243613892E0,8.177911354E0
2.910708583E0,-1.088087311E0,-7.126530304E0,4.939727783E-2,7.209286252E0
2.920711583E0,-1.499282227E0,-6.598278809E0,9.939331055E-1,6.839081331E0
2.930714583E0,-1.727707214E0,-6.355334015E0,1.635648651E0,6.786058441E0
2.940717833E0,-1.720073090E0,-6.311924286E0,1.944755859E0,6.825035896E0
2.950720833E0,-1.561552734E0,-6.679859161E0,1.930535431E0,7.126424939E0
2.960722833E0,-1.350042572E0,-7.493417358E0,1.725461884E0,7.807120940E0
2.970725833E0,-9.536668396E-1,-8.515641632E0,1.457968140E0,8.692025307E0
2.980728833E0,-3.384461975E-1,-9.589059448E0,1.042432251E0,9.651490658E0
2.990731833E0,3.302133179E-1,-1.044318329E1,3.423381042E-1,1.045400944E1
3.000734833E0,1.046174469E0,-1.096365097E1,-7.244934082E-1,1.103725574E1
3.010737833E0,1.824855194E0,-1.101933517E1,-2.245031433E0,1.139280520E1
3.020740833E0,2.774181061E0,-1.066487228E1,-4.473297729E0,1.189310615E1
3.030743833E0,3.563190308E0,-1.001207977E1,-6.938521271E0,1.269177466E1
3.040746833E0,3.741319885E0,-9.120234375E0,-8.295898590E0,1.288402433E1
3.050749833E0,3.131188660E0,-8.420738983E0,-7.560777283E0,1.174216933E1
3.060752833E0,1.808090057E0,-8.023165741E0,-5.068759460E0,9.660885085E0
3.070755833E0,4.715194702E-2,-7.815397797E0,-1.961520996E0,8.057929675E0
3.080758833E0,-1.831591187E0,-7.554041290E0,6.379733276E-1,7.799056100E0
3.090761833E0,-3.268602905E0,-7.075187073E0,2.686313782E0,8.243683570E0
3.100764833E0,-3.745960236E0,-6.406228180E0,3.303779755E0,8.123234470E0
3.110767833E0,-3.644770660E0,-5.626050568E0,2.718945923E0,7.233910774E0
3.120770833E0,-3.839964752E0,-5.128934326E0,1.380279694E0,6.554118450E0
3.130772833E0,-4.595294037E0,-5.575755157E0,-7.828720093E-2,7.225780356E0
3.140775833E0,-5.123246155E0,-6.885082397E0,-7.932005310E-1,8.618652903E0
3.150778833E0,-5.005141754E0,-8.362510071E0,-1.157842255E0,9.814459606E0
3.160781833E0,-4.209695892E0,-1.009126511E1,-1.213077393E0,1.100121483E1
3.170784833E0,-3.173849945E0,-1.210368027E1,-5.691165161E-1,1.252582505E1
3.180787833E0,-2.505040741E0,-1.438568481E1,-2.442919922E-1,1.460420608E1
3.190790833E0,-2.419867859E0,-1.685794373E1,-1.416055298E-1,1.703132641E1
3.200793833E0,-2.760260010E0,-1.910147827E1,4.861889648E-1,1.930600651E1
3.210796833E0,-3.031196594E0,-2.152209457E1,1.120719452E0,2.176338025E1
3.220799833E0,-3.221151581E0,-2.396935547E1,1.461860046E0,2.422896725E1
3.230802833E0,-2.942730560E0,-2.603281448E1,1.767973480E0,2.625819536E1
3.240805833E0,-2.082469482E0,-2.709216156E1,1.878593445E0,2.723694202E1
3.250808833E0,-1.192420349E0,-2.637590103E1,1.715432739E0,2.645850961E1
3.260811833E0,-1.115330658E0,-2.271466461E1,1.416953430E0,2.278612973E1
3.270814833E0,-1.254241791E0,-1.874821289E1,1.223705292E0,1.882992469E1
3.280817833E0,-1.115929413E0,-1.595472198E1,9.687854004E-1,1.602301461E1
3.290819833E0,-9.891430664E-1,-1.372301285E1,4.840933228E-1,1.376712868E1
3.300822833E0,-1.403930511E0,-1.210173431E1,-6.376739502E-1,1.219957468E1
3.310825833E0,-2.206860809E0,-1.103235809E1,-3.329675903E0,1.173328178E1
3.320828833E0,-2.888094177E0,-1.053179901E1,-7.265441437E0,1.311665040E1
3.330831833E0,-2.301015015E0,-1.005099884E1,-9.310937805E0,1.389283307E1
3.340834833E0,-1.194366302E0,-8.901239777E0,-7.937394104E0,1.198585857E1
3.350837833E0,-7.852670288E-1,-7.345075836E0,-4.992418213E0,8.915773828E0
3.360840833E0,-4.047583008E-1,-6.111341400E0,-2.428849182E0,6.588750363E0
3.370843833E0,-1.381626892E-1,-4.990322571E0,-6.870712280E-1,5.039293121E0
3.380846833E0,5.763015747E-2,-3.789369965E0,1.552272034E-1,3.792985822E0
3.390849833E0,3.436853027E-1,-2.671793976E0,5.023553467E-1,2.740248808E0
3.400852833E0,3.811074829E-1,-1.778002625E0,8.725355530E-1,2.016892297E0
3.410855833E0,4.653822327E-1,-9.642947388E-1,1.093775482E0,1.530617448E0
3.420858833E0,6.265969849E-1,-1.649569702E-1,1.185534668E0,1.351046643E0
3.430861833E0,6.259982300E-1,4.727169800E-1,1.191821594E0,1.426805467E0
3.440864833E0,3.751199341E-1,5.463638306E-1,7.738906860E-1,1.018889196E0
3.450866833E0,2.371069336E-1,5.929170227E-1,2.749781799E-1,6.952577171E-1
3.460869833E0,3.815565491E-1,7.984396362E-1,-2.929408264E-1,9.321510503E-1
3.470872833E0,5.010081482E-1,1.143322449E0,-1.036145325E0,1.622280038E0
3.480875833E0,5.077441406E-1,1.487157440E0,-1.465003510E0,2.148412588E0
3.490878833E0,4.800517273E-1,1.715881805E0,-1.344204712E0,2.231946760E0
3.500881833E0,3.167413330E-1,1.864223328E0,-1.005159760E0,2.141494765E0
3.510884833E0,2.115101624E-1,1.894310760E0,-6.234535217E-1,2.005453590E0
3.520887833E0,2.513273621E-1,1.760189667E0,-1.303788757E-1,1.782815682E0
3.530890833E0,4.234693909E-1,1.471290436E0,3.769161987E-1,1.576733234E0
3.540893833E0,5.789959717E-1,1.137334900E0,7.934999084E-1,1.502800424E0
3.550896833E0,6.222560120E-1,9.704319763E-1,9.610015869E-1,1.500821380E0
3.560899833E0,6.240522766E-1,8.234376526E-1,7.523355103E-1,1.278084321E0
3.570902833E0,6.096821594E-1,6.556365967E-1,2.020797729E-1,9.178278254E-1
3.580905833E0,7.574249268E-1,2.495310974E-1,-1.148112488E-1,8.056921938E-1
3.590908833E0,7.188052368E-1,-7.427554321E-1,-6.688092041E-1,1.231126457E0
3.600910833E0,5.619314575E-1,-2.511327667E0,-3.528163147E-1,2.597501293E0
3.610913833E0,6.201603699E-1,-4.389322357E0,9.961784363E-1,4.543470162E0
3.620916833E0,1.137035522E0,-6.883585510E0,1.757495270E0,7.194816807E0
3.630919833E0,-1.795665894E0,-2.046259781E1,-1.106648712E0,2.057102322E1
3.640922833E0,-1.247341141E1,-5.046156464E1,-3.174897766E-1,5.198130719E1
3.650925833E0,-1.780098267E1,-7.260935806E1,3.090323639E0,7.482341854E1
3.660928833E0,-8.897497559E0,-6.536771713E1,5.777834930E0,6.622301173E1
3.670931833E0,-2.130669250E0,-4.483746002E1,-3.173400879E-2,4.488806723E1
3.680934833E0,-2.298170929E0,-2.479339188E1,-6.069428558E0,2.562873062E1
3.690937833E0,-3.976031799E0,-1.573033859E1,-3.696413269E0,1.664078881E1
3.700940833E0,-4.066743164E0,-1.019080811E1,-1.477427673E-1,1.097327653E1
3.710943833E0,-3.215613098E0,-6.343807983E0,2.764600983E0,7.630667462E0
3.720946833E0,-2.393073578E0,-3.658092957E0,3.966152344E0,5.902440990E0
3.730949833E0,-2.324216766E0,-1.599723358E0,2.750380554E0,3.940265422E0
3.740952833E0,-2.411485291E0,-3.947291565E-1,1.216819611E0,2.729784310E0
3.750955833E0,-1.981878662E0,5.804928589E-1,5.264552307E-1,2.131189832E0
3.760958833E0,-1.272952881E0,1.043480072E0,4.574487305E-1,1.708367361E0
3.770960833E0,-7.207511902E-1,1.021026764E0,4.080514526E-1,1.314718190E0
3.780963833E0,-5.066963196E-1,8.303233337E-1,4.489164734E-1,1.071309479E0
3.790966833E0,-4.614903259E-1,6.066883850E-1,5.161267090E-1,9.205600997E-1
3.800969833E0,-6.282435608E-1,5.007087708E-1,3.408412170E-1,8.726809154E-1
3.810972833E0,-8.149053955E-1,7.424560547E-2,5.777984619E-2,8.203180628E-1
3.820975833E0,-8.650511169E-1,-8.397537231E-1,-1.152603149E-2,1.205666869E0
3.830978833E0,-1.518592072E0,-2.758763123E0,2.520758057E-1,3.159183131E0
3.840981833E0,-2.667153625E0,-6.444548492E0,-5.707630920E-1,6.997977153E0
3.850984833E0,-4.467160492E0,-1.160865967E1,-2.356848907E0,1.265982776E1
3.860987833E0,-6.453978882E0,-1.665107391E1,-2.537223816E0,1.803745022E1
3.870990833E0,-7.521558838E0,-1.973301498E1,-1.518891449E0,2.117245283E1
3.880993833E0,-7.898325348E0,-2.033476364E1,-5.764512634E-1,2.182243001E1
3.890996833E0,-7.127727814E0,-1.784379364E1,-5.396278381E-1,1.922229626E1
3.900999833E0,-4.951553192E0,-1.427237045E1,-1.572180634E0,1.518848871E1
3.911002833E0,-3.258873138E0,-1.246472946E1,-2.331850891E0,1.309302346E1
3.921004833E0,-1.736838226E0,-1.163964523E1,-2.269730072E0,1.198539206E1
3.931007833E0,-3.905378723E-1,-1.064167053E1,-1.615440674E0,1.077066944E1
3.941010750E0,3.959266663E-1,-9.582622833E0,-8.322692871E-1,9.626842185E0
3.951013750E0,6.468049622E-1,-8.769214325E0,-1.393601990E-1,8.794139969E0
3.961016750E0,4.126918030E-1,-8.373736725E0,5.465135193E-1,8.401693775E0
3.971019750E0,1.694476318E-1,-8.256979523E0,1.174607391E0,8.341829887E0
3.981022750E0,1.785786438E-1,-8.119714966E0,1.630259857E0,8.283683279E0
3.991025750E0,1.520837402E-1,-8.067473602E0,1.814077606E0,8.270316641E0
4.001028750E0,9.699829102E-2,-8.146060181E0,1.801354065E0,8.343415464E0
4.011031750E0,2.186952209E-1,-8.423433380E0,1.549577637E0,8.567569571E0
4.021034750E0,2.884501648E-1,-8.902287598E0,1.024469604E0,8.965682681E0
4.031037750E0,1.209484863E-1,-9.480385437E0,5.126838684E-1,9.495008232E0
4.041040750E0,-1.386117554E-1,-9.948462067E0,2.011816406E-1,9.951461439E0
4.051043750E0,-5.144801331E-1,-1.025307861E1,-6.271957397E-2,1.026616991E1
4.061046750E0,-9.403445435E-1,-1.034094589E1,-3.035687256E-1,1.038804908E1
4.071049750E0,-1.416803741E0,-1.030831375E1,-5.719606018E-1,1.042093106E1
4.081052750E0,-1.898951111E0,-1.019619690E1,-9.096583557E-1,1.041133636E1
4.091054750E0,-2.249821472E0,-1.003378464E1,-1.341809692E0,1.037010048E1
4.101057750E0,-2.418820038E0,-9.771230621E0,-1.902543640E0,1.024437946E1
4.111060750E0,-2.439626770E0,-9.561516724E0,-2.596650238E0,1.020377250E1
4.121063750E0,-2.304457855E0,-9.458530884E0,-3.409160614E0,1.031487802E1
4.131066750E0,-2.092348938E0,-9.368268585E0,-4.112847290E0,1.044307872E1
4.141069750E0,-1.904190216E0,-9.251810760E0,-4.413571930E0,1.042600402E1
4.151072750E0,-1.801653442E0,-9.070388031E0,-4.050127716E0,1.009561433E1
4.161075750E0,-1.749262390E0,-8.857231293E0,-3.214864655E0,9.583622479E0
4.171078750E0,-1.699715424E0,-8.538544006E0,-2.386487274E0,9.027241427E0
4.181081750E0,-1.598226471E0,-8.162675629E0,-1.922751617E0,8.537012068E0
4.191084750E0,-1.518292694E0,-7.744145966E0,-1.792672119E0,8.092631387E0
4.201087750E0,-1.421593781E0,-7.201524353E0,-1.535806274E0,7.499438832E0
4.211090750E0,-1.760189667E0,-6.522686005E0,-3.118016052E-1,6.763203429E0
4.221093750E0,-2.145189056E0,-5.877527618E0,1.118174744E-1,6.257768783E0
4.231096750E0,-2.263592834E0,-5.504503326E0,-3.381468201E-1,5.961354935E0
4.241098750E0,-2.414329376E0,-5.419031067E0,-4.680766296E-1,5.950964609E0
4.251101750E0,-2.512225800E0,-5.722001038E0,-1.474433899E-1,6.250945040E0
4.261104750E0,-2.288590851E0,-6.389762421E0,-9.310638428E-2,6.787884845E0
4.271107750E0,-1.908830566E0,-7.419171753E0,-1.679507446E-1,7.662633430E0
4.281110750E0,-1.769769745E0,-8.808283081E0,6.646179199E-2,8.984561923E0
4.291113750E0,-2.123484192E0,-1.035097504E1,1.190624084E0,1.063341220E1
4.301116750E0,-2.408042450E0,-1.217957245E1,2.214644623E0,1.261131652E1
4.311119750E0,-3.041674805E0,-1.457234665E1,2.565664673E0,1.510588321E1
4.321122750E0,-3.920946350E0,-1.815858902E1,3.072510681E0,1.882945823E1
4.331125750E0,-4.841681671E0,-2.300835388E1,3.673660583E0,2.379752113E1
4.341128750E0,-5.638624420E0,-2.797996536E1,4.295317841E0,2.886385806E1
4.351131750E0,-5.559588776E0,-3.176439560E1,4.066892853E0,3.250269947E1
4.361134750E0,-4.431833954E0,-3.228501297E1,2.840493164E0,3.271133773E1
4.371137750E0,-2.709216156E0,-2.739857437E1,1.519041138E0,2.757406781E1
4.381140750E0,-9.107061768E-1,-2.138707535E1,9.845027161E-1,2.142908358E1
4.391143750E0,2.368075562E-1,-1.782253784E1,6.316864014E-1,1.783530097E1
4.401145750E0,5.083428955E-1,-1.517035309E1,-3.445834351E-1,1.518277850E1
4.411148750E0,1.079255676E-1,-1.359248428E1,-1.938618622E0,1.373045954E1
4.421151750E0,-6.863227844E-1,-1.286095551E1,-4.115541687E0,1.352083203E1
4.431154750E0,-1.065334625E0,-1.214529373E1,-5.962850189E0,1.357198143E1
4.441157750E0,-1.225800934E0,-1.102158051E1,-7.002438354E0,1.311533330E1
4.451160750E0,-1.505868530E0,-9.487271118E0,-7.735164642E0,1.233323661E1
4.461163750E0,-1.957479401E0,-7.963290253E0,-8.312514038E0,1.167662652E1
4.471166750E0,-2.212848358E0,-6.347699890E0,-7.716154175E0,1.023372010E1
4.481169750E0,-2.154320068E0,-4.662653961E0,-5.813011780E0,7.757096291E0
4.491172750E0,-2.332599335E0,-3.187172241E0,-3.670966187E0,5.392131239E0
4.501175750E0,-2.313139801E0,-1.913770294E0,-1.904339905E0,3.555227553E0
4.511178750E0,-1.936672668E0,-9.713301086E-1,-1.933978271E-1,2.175220891E0
4.521181750E0,-1.453028412E0,-1.890568542E-1,1.132844238E0,1.852125840E0
4.531184750E0,-7.812254333E-1,5.016069031E-1,2.101479950E0,2.297420432E0
4.541187750E0,-1.836680603E-1,1.070723419E0,2.104024658E0,2.367932085E0
4.551190750E0,7.694000244E-2,1.270557861E0,1.582808533E0,2.031137586E0
4.561192750E0,1.224453735E-1,1.266665955E0,1.138981476E0,1.707839077E0
4.571195750E0,1.683998108E-1,1.378932495E0,6.439608765E-1,1.531175670E0
4.581198750E0,1.947450256E-1,1.595382385E0,2.149530029E-1,1.621534882E0
4.591201750E0,2.032772827E-1,1.854194183E0,1.830693054E-1,1.874265748E0
4.601204750E0,2.442919922E-1,1.918260956E0,3.362008667E-1,1.962762007E0
4.611207750E0,3.570075989E-1,1.722468109E0,5.807922363E-1,1.852476838E0
4.621210750E0,4.216731262E-1,1.503772888E0,8.756790161E-1,1.790518043E0
4.631213750E0,5.432203674E-1,1.309177551E0,1.156345367E0,1.829253628E0
4.641216750E0,6.372248840E-1,1.143023071E0,1.157692566E0,1.747229055E0
4.651219750E0,7.535330200E-1,1.013093262E0,1.125359802E0,1.691332213E0
4.661222750E0,8.622070313E-1,9.413923645E-1,1.204545135E0,1.755149433E0
4.671225750E0,9.198371887E-1,7.731422424E-1,1.252295837E0,1.735538604E0
4.681228750E0,9.581575012E-1,5.222639465E-1,1.132095795E0,1.572407808E0
4.691231750E0,9.225315857E-1,-5.433700562E-2,8.059240723E-1,1.226185405E0
4.701234750E0,8.650511169E-1,-1.238374786E0,9.196875000E-1,1.768533473E0
4.711237750E0,8.740324402E-1,-3.426225128E0,1.274599457E0,3.758664006E0
4.721239750E0,7.605683899E-1,-4.240232391E0,8.855584717E-1,4.397982357E0
4.731242750E0,1.089434509E0,-6.253246307E0,-2.095642090E-1,6.350895534E0
4.741245750E0,3.924838257E-1,-1.552706131E1,-4.495751038E0,1.616958422E1
4.751248750E0,-8.061186676E0,-4.422747849E1,-5.021906891E0,4.523573955E1
4.761251750E0,-1.705164093E1,-6.783129410E1,2.011517029E0,6.997063040E1
4.771254750E0,-1.734622833E1,-6.774671997E1,4.053570557E-1,6.993335412E1
4.781257750E0,-9.615554352E0,-4.794335129E1,-4.515809326E0,4.910617428E1
4.791260750E0,-7.360793152E0,-2.810555420E1,-3.051105194E0,2.921322809E1
4.801263750E0,-5.672304382E0,-1.764545609E1,-9.639953613E-2,1.853500608E1
4.811266750E0,-2.953508148E0,-1.020173538E1,2.023941193E0,1.081179694E1
4.821269750E0,-8.451425171E-1,-5.314099274E0,2.390678558E0,5.888060881E0
4.831272750E0,9.939331055E-2,-2.241588593E0,9.743238831E-1,2.446202256E0
4.841275750E0,2.514770508E-2,-9.024732971E-1,-8.713380432E-1,1.254719269E0
4.851278750E0,-4.071533203E-2,-3.269201660E-1,-1.528621216E0,1.563719078E0
4.861281750E0,2.209405518E-1,-9.580078125E-2,-1.418150940E0,1.438452156E0
4.871284750E0,6.620732117E-1,5.194198608E-2,-1.007105713E0,1.206358497E0
4.881286750E0,1.024319916E0,2.685415649E-1,-6.336323547E-1,1.234032343E0
4.891289750E0,1.271455994E0,4.086502075E-1,-3.920347595E-1,1.391864429E0
4.901292750E0,1.643881531E0,1.218466187E-1,-3.643423462E-1,1.688176066E0
4.911295750E0,2.014061737E0,-1.284029846E0,-6.056405640E-1,2.464138352E0
4.921298750E0,1.726210327E0,-3.637286224E0,-6.911128235E-1,4.085007969E0
4.931301750E0,1.288221130E0,-6.262227631E0,-4.740641785E-1,6.410908315E0
4.941304625E0,8.488847351E-1,-9.116941223E0,-1.760339355E-1,9.158068055E0
4.951307625E0,3.703298950E-1,-1.193288544E1,3.053649902E-2,1.193866959E1
4.961310625E0,-7.828720093E-2,-1.422491913E1,1.378633118E-1,1.422580259E1
4.971313625E0,-6.367758179E-1,-1.545176788E1,7.858657837E-2,1.546508293E1
4.981316625E0,-1.567240906E0,-1.549532730E1,-3.829037476E-1,1.557908943E1
4.991319625E0,-2.823578339E0,-1.459300369E1,-1.135388947E0,1.490696010E1
5.001322625E0,-3.827690277E0,-1.345746506E1,-1.583556976E0,1.408056218E1
5.011325625E0,-4.416865082E0,-1.259346176E1,-1.435514832E0,1.342254369E1
5.021328625E0,-4.725373535E0,-1.184681442E1,-9.536668396E-1,1.279006049E1
5.031331625E0,-4.755011902E0,-1.105585922E1,-3.811074829E-1,1.204107156E1
5.041333625E0,-4.511318665E0,-1.014530273E1,2.002835083E-1,1.110492130E1
5.051336625E0,-4.124822388E0,-9.347012787E0,7.873626709E-1,1.024698725E1
5.061339625E0,-3.721860352E0,-8.701255646E0,1.303788757E0,9.553217228E0
5.071342625E0,-3.305725708E0,-8.238567810E0,1.677262115E0,9.034103731E0
5.081345625E0,-2.955603790E0,-7.945477295E0,1.903292084E0,8.688424711E0
5.091348625E0,-2.702779541E0,-7.840545502E0,1.894610138E0,8.506980580E0
5.101351625E0,-2.635269928E0,-7.827821960E0,1.626517639E0,8.418135415E0
5.111354625E0,-2.656974792E0,-7.986641693E0,1.226848755E0,8.505946064E0
5.121357625E0,-2.665806427E0,-8.268655243E0,8.238867188E-1,8.726738953E0
5.131360625E0,-2.642155609E0,-8.643326111E0,4.411326599E-1,9.048904384E0
5.141363625E0,-2.572250977E0,-9.054970093E0,1.725910950E-1,9.414815248E0
5.151366625E0,-2.432441711E0,-9.348359985E0,-3.008743286E-2,9.659684899E0
5.161369625E0,-2.261646881E0,-9.565408630E0,-2.667453003E-1,9.832763698E0
5.171372625E0,-1.989812164E0,-9.676777039E0,-4.757107544E-1,9.890685872E0
5.181375625E0,-1.651665344E0,-9.670190735E0,-7.234455872E-1,9.836867427E0
5.191378625E0,-1.316811676E0,-9.632469177E0,-1.004411316E0,9.773806706E0
5.201380625E0,-1.149309998E0,-9.633217621E0,-1.169068909E0,9.771720284E0
5.211383625E0,-1.056652679E0,-9.594597931E0,-1.230890350E0,9.730771572E0
5.221386625E0,-9.774673462E-1,-9.526489563E0,-1.177301788E0,9.648600173E0
5.231389625E0,-9.645941162E-1,-9.419312439E0,-9.336085510E-1,9.514489664E0
5.241392625E0,-9.909393311E-1,-9.317075043E0,-6.773414612E-1,9.394074705E0
5.251395625E0,-1.071471863E0,-9.229357452E0,-5.480104065E-1,9.307491947E0
5.261398625E0,-1.179996185E0,-9.164991302E0,-6.809339905E-1,9.265696286E0
5.271401625E0,-1.321002960E0,-9.128766632E0,-1.010398865E0,9.279026614E0
5.281404625E0,-1.496288452E0,-9.147627411E0,-1.463057556E0,9.383949264E0
5.291407625E0,-1.614542542E0,-9.172176361E0,-1.945204926E0,9.514167805E0
5.301410625E0,-1.628313904E0,-9.198222198E0,-2.407144318E0,9.646400445E0
5.311413625E0,-1.596579895E0,-9.146130524E0,-2.987337799E0,9.753202451E0
5.321416625E0,-1.521735535E0,-8.961115265E0,-3.382815399E0,9.698489875E0
5.331419625E0,-1.412163391E0,-8.630602570E0,-3.204685822E0,9.314049462E0
5.341422625E0,-1.363963623E0,-8.342751160E0,-2.538571014E0,8.826450956E0
5.351425625E0,-1.454974365E0,-8.209977264E0,-1.892215118E0,8.549921353E0
5.361427625E0,-1.406924286E0,-8.209977264E0,-1.235381012E0,8.420767713E0
5.371430625E0,-1.238075409E0,-8.297245789E0,-7.108717346E-1,8.419171991E0
5.381433625E0,-9.684860229E-1,-8.191715240E0,-1.938468933E-1,8.251044805E0
5.391436625E0,-7.057823181E-1,-7.941884766E0,7.334747314E-1,8.006850036E0
5.401439625E0,-6.264472961E-1,-7.777526550E0,1.463356934E0,7.938751096E0
5.411442625E0,-7.909552002E-1,-7.634274445E0,1.371597748E0,7.796732444E0
5.421445625E0,-1.230890350E0,-7.690407715E0,1.010099487E0,7.853519138E0
5.431448625E0,-1.896705780E0,-8.041427765E0,4.839436340E-1,8.276246417E0
5.441451625E0,-2.765948181E0,-8.642278290E0,1.499880981E-1,9.075347917E0
5.451454625E0,-3.408262482E0,-9.769434357E0,3.743714905E-1,1.035365901E1
5.461457625E0,-4.017046509E0,-1.161105469E1,7.756869507E-1,1.231076536E1
5.471460625E0,-4.838089142E0,-1.416713928E1,9.108558655E-1,1.499815323E1
5.481463625E0,-5.524711304E0,-1.759695694E1,8.527766418E-1,1.846354669E1
5.491466625E0,-6.122418365E0,-2.178330139E1,8.071215820E-1,2.264172413E1
5.501469625E0,-6.380631409E0,-2.576996109E1,1.346450043E0,2.658225497E1
5.511472625E0,-5.731581116E0,-2.820135498E1,1.958527222E0,2.884446695E1
5.521475625E0,-4.192631378E0,-2.756996796E1,2.203118591E0,2.797382746E1
5.531477625E0,-3.369642792E0,-2.374736710E1,2.321672058E0,2.409734628E1
5.541480625E0,-3.155737610E0,-2.027443909E1,2.038460999E0,2.061957525E1
5.551483625E0,-2.758014679E0,-1.835348373E1,1.498533783E0,1.861995203E1
5.561486625E0,-2.484084320E0,-1.675825104E1,8.072712708E-1,1.696058194E1
5.571489625E0,-2.380649414E0,-1.531165924E1,-2.463876343E-1,1.549758392E1
5.581492625E0,-2.354753265E0,-1.383318375E1,-1.806593170E0,1.414798976E1
5.591495625E0,-2.419718170E0,-1.228585144E1,-4.053720245E0,1.316168034E1
5.601498625E0,-2.543810120E0,-1.064316742E1,-6.424490204E0,1.268944668E1
5.611501625E0,-2.616109772E0,-8.873397675E0,-7.754624176E0,1.207126392E1
5.621504625E0,-2.605930939E0,-7.140151978E0,-7.216044159E0,1.048064595E1
5.631507625E0,-2.636916504E0,-5.564079437E0,-5.420228577E0,8.203120532E0
5.641510625E0,-2.567460938E0,-4.314028931E0,-3.542084198E0,6.144026509E0
5.651513625E0,-2.363285522E0,-3.161874847E0,-1.744023285E0,4.315575075E0
5.661516625E0,-1.755998383E0,-1.941612396E0,-4.117936707E-1,2.650087365E0
5.671519625E0,-1.060694275E0,-8.857081604E-1,2.300715637E-1,1.400886939E0
5.681522625E0,-5.987548828E-1,-5.792953491E-2,3.252735901E-1,6.838612060E-1
5.691524625E0,-8.292755127E-2,6.381230164E-1,9.789642334E-2,6.508929808E-1
5.701527625E0,4.387376404E-1,1.115480347E0,-4.849914551E-2,1.199641316E0
5.711530625E0,7.571255493E-1,1.246907043E0,1.847158813E-1,1.470420426E0
5.721533625E0,7.406597900E-1,1.134191437E0,5.388793945E-1,1.457860810E0
5.731536625E0,6.993457031E-1,1.077459412E0,6.548881531E-1,1.441832754E0
5.741539625E0,6.894662476E-1,1.098415833E0,4.132905579E-1,1.361135604E0
5.751542625E0,6.164181519E-1,1.179397430E0,1.591191101E-1,1.340249428E0
5.761545625E0,5.685177612E-1,1.126856689E0,1.184037781E-1,1.267689985E0
5.771548625E0,5.388793945E-1,1.091679840E0,1.074765015E-1,1.222173095E0
5.781551625E0,5.002597046E-1,1.066981201E0,1.225950623E-1,1.184794583E0
5.791554625E0,4.604425049E-1,1.022224274E0,1.520837402E-1,1.131405864E0
5.801557625E0,5.303471375E-1,9.505233765E-1,2.480342102E-1,1.116370792E0
5.811560625E0,5.304968262E-1,8.186476135E-1,3.055146790E-1,1.022227967E0
5.821563625E0,5.556445312E-1,7.203021240E-1,3.781137085E-1,9.851629162E-1
5.831566625E0,5.610333252E-1,7.229965210E-1,1.850152588E-1,9.336557221E-1
5.841568625E0,3.565585327E-1,7.514373779E-1,-5.306465149E-1,9.865991303E-1
5.851571625E0,3.294648743E-1,-9.491761780E-1,-8.541238403E-1,1.318715305E0
5.861574625E0,5.613327026E-1,-2.275567932E0,-2.474354553E-1,2.356804642E0
5.871577625E0,5.870791626E-1,-2.171833649E0,1.224753113E0,2.561551000E0
5.881580625E0,6.831793213E-1,-2.826272736E0,2.496957550E0,3.832668596E0
5.891583625E0,1.113384705E0,-4.958588562E0,4.019441528E0,6.479439499E0
5.901586625E0,3.490740967E-1,-1.306183777E1,4.345164185E0,1.377003669E1
5.911589625E0,-7.689958649E0,-4.255545547E1,3.390748901E0,4.337740694E1
5.921592625E0,-1.607656860E1,-7.072447769E1,6.023174744E0,7.277833769E1
5.931595625E0,-1.305944275E1,-7.091383392E1,2.854563904E0,7.216279805E1
5.941599208E0,-4.779710541E0,-5.485373108E1,-7.426656189E0,5.556017160E1
5.951602208E0,-3.252735901E0,-3.108256348E1,-1.139086258E1,3.326346033E1
5.961605208E0,-3.980073395E0,-1.703278015E1,-8.022866364E0,1.924377740E1
5.971608208E0,-2.863096161E0,-9.798923035E0,-3.569177856E0,1.081458473E1
5.981611208E0,-2.082170105E0,-5.452112274E0,6.062393188E-1,5.867579289E0
5.991614208E0,-1.667382660E0,-2.911595306E0,1.885479126E0,3.848711953E0
6.001617208E0,-1.710493011E0,-1.069226532E0,1.102756805E0,2.298935469E0
6.011619208E0,-1.275497589E0,1.073268127E-1,1.189426575E0,1.747326163E0
6.021622208E0,-7.589218140E-1,1.112785950E0,1.288819885E0,1.864218760E0
6.031625208E0,-3.902384949E-1,1.350341949E0,1.076561279E0,1.770506609E0
6.041628208E0,-1.878593445E-1,1.128203888E0,7.494914246E-1,1.367432829E0
6.051631208E0,-2.031275940E-1,8.927435303E-1,5.773493958E-1,1.082397411E0
6.061634208E0,-3.079096985E-1,8.059240723E-1,6.312373352E-1,1.069010087E0
6.071637208E0,-5.209167480E-1,9.403445435E-1,6.521937561E-1,1.257361847E0
6.081640208E0,-8.187973022E-1,7.824229431E-1,8.665480042E-1,1.426015472E0
6.091643208E0,-1.048270111E0,1.176553345E-1,1.241967316E0,1.629477161E0
6.101646208E0,-1.187779999E0,-6.077362061E-1,1.621428223E0,2.099808111E0
6.111649208E0,-1.580712891E0,-1.385219421E0,1.963766327E0,2.876432560E0
6.121652208E0,-3.521726532E0,-4.787644043E0,1.564995575E0,6.145999056E0
6.131655208E0,-6.133195953E0,-1.085467758E1,7.200027466E-2,1.246777053E1
6.141658208E0,-8.066874847E0,-1.674103683E1,-6.171665955E-1,1.859348485E1
6.151661208E0,-9.086853790E0,-2.157328812E1,-4.587959290E-1,2.341341850E1
6.161664208E0,-9.171727295E0,-2.476046036E1,-4.766088867E-1,2.640886470E1
6.171666208E0,-7.477700043E0,-2.462439331E1,-8.840615845E-1,2.574991862E1
6.181669208E0,-4.315376129E0,-1.938888062E1,-2.121837616E0,1.997631992E1
6.191672208E0,-2.677332458E0,-1.393616959E1,-2.946323090E0,1.449364521E1
6.201675208E0,-2.229763184E0,-1.084494781E1,-2.840942230E0,1.143047198E1
6.211678208E0,-2.018253021E0,-8.658294983E0,-2.428849182E0,9.216220788E0
6.221681208E0,-1.922601929E0,-7.062613220E0,-1.818418579E0,7.542118390E0
6.231684208E0,-1.964963837E0,-5.943989410E0,-1.015787659E0,6.342232853E0
6.241687208E0,-1.948647766E0,-5.207221527E0,-8.307723999E-2,5.560511305E0
6.251690208E0,-1.889520721E0,-4.925956421E0,8.731343079E-1,5.347681623E0
6.261693208E0,-1.931732941E0,-5.295687561E0,1.568737793E0,5.851225270E0
6.271696208E0,-2.139500885E0,-6.551875305E0,1.753902740E0,7.112011591E0
6.281699208E0,-2.192939758E0,-8.193212128E0,1.507664795E0,8.614566901E0
6.291702208E0,-2.019749908E0,-9.519154816E0,1.300645294E0,9.817605425E0
6.301705208E0,-1.759890289E0,-1.052057236E1,1.254092102E0,1.074022363E1
6.311708208E0,-1.325044556E0,-1.106918152E1,1.159339142E0,1.120832681E1
6.321711208E0,-6.774911499E-1,-1.128054199E1,9.903405762E-1,1.134417896E1
6.331713208E0,2.664459229E-2,-1.110316086E1,6.966513062E-1,1.112502647E1
6.341716208E0,6.286926270E-1,-1.054572006E1,3.390449524E-1,1.056988257E1
6.351719208E0,9.451345825E-1,-9.829758911E0,-3.143463135E-2,9.875141911E0
6.361722208E0,1.093476105E0,-9.183103638E0,-4.519102478E-1,9.259012112E0
6.371725208E0,1.052162018E0,-8.831185455E0,-9.162446594E-1,8.940715057E0
6.381728208E0,9.589059448E-1,-8.858129425E0,-1.513802032E0,9.037563505E0
6.391731208E0,7.851173401E-1,-9.250164185E0,-2.229164429E0,9.547309607E0
6.401734208E0,2.323168945E-1,-9.735305328E0,-2.876568146E0,1.015405265E1
6.411737208E0,-6.975494385E-1,-1.001612137E1,-3.215762787E0,1.054278866E1
6.421740208E0,-1.782193909E0,-1.007599686E1,-3.256777496E0,1.073818083E1
6.431743208E0,-2.749781799E0,-9.901759186E0,-2.987337799E0,1.070188404E1
6.441746208E0,-3.622766418E0,-9.630972290E0,-2.380948792E0,1.056167510E1
6.451749208E0,-4.399201813E0,-9.242829437E0,-1.936522980E0,1.041791696E1
6.461752208E0,-4.891977081E0,-8.617130585E0,-1.968706055E0,1.010258298E1
6.471755208E0,-4.936434631E0,-7.791746979E0,-2.148482208E0,9.470780520E0
6.481758208E0,-4.647535400E0,-7.119944000E0,-1.970053253E0,8.727788820E0
6.491760208E0,-4.338428192E0,-6.761140137E0,-1.606758728E0,8.192475129E0
6.501763208E0,-3.847149811E0,-6.618337097E0,-1.061442719E0,7.728493271E0
6.511766208E0,-3.118016052E0,-6.787036285E0,-4.055067444E-1,7.479994743E0
6.521769208E0,-2.328707428E0,-7.305258636E0,8.277786255E-2,7.667889814E0
6.531772208E0,-1.678309937E0,-7.872878265E0,5.902226257E-1,8.071387686E0
6.541775208E0,-1.216220856E0,-8.457412720E0,9.036708069E-1,8.592068669E0
6.551778208E0,-8.836125183E-1,-9.075477448E0,4.384382629E-1,9.128926010E0
6.561781208E0,-6.548881531E-1,-9.795779572E0,-8.681945801E-3,9.817649988E0
6.571784208E0,-6.728507996E-1,-1.021655457E1,3.245251465E-1,1.024382897E1
6.581787208E0,-8.084687805E-1,-1.059032730E1,7.638615417E-1,1.064857449E1
6.591790208E0,-8.096662903E-1,-1.132649643E1,9.110055542E-1,1.139188360E1
6.601793208E0,-9.966275024E-1,-1.238614288E1,1.159788208E0,1.248018071E1
6.611796208E0,-1.510957947E0,-1.380923355E1,9.900411987E-1,1.392688432E1
6.621799208E0,-2.325114899E0,-1.563513657E1,8.249345398E-1,1.582858717E1
6.631802208E0,-2.972668304E0,-1.752525604E1,1.046922913E0,1.780638660E1
6.641804208E0,-3.465443573E0,-1.972358459E1,1.583706665E0,2.008823574E1
6.651807208E0,-4.145030365E0,-2.238909164E1,2.486928406E0,2.290496702E1
6.661810208E0,-4.766687622E0,-2.494667313E1,3.188818817E0,2.559739003E1
6.671813208E0,-5.093607788E0,-2.591710510E1,3.574267273E0,2.665364072E1
6.681816208E0,-5.023254089E0,-2.448757782E1,3.595373383E0,2.525472746E1
6.691819208E0,-4.291126556E0,-2.123514130E1,3.275338898E0,2.191056453E1
6.701822208E0,-3.081941071E0,-1.866453690E1,2.643951874E0,1.910114603E1
6.711825208E0,-2.423909454E0,-1.678489563E1,1.798060913E0,1.705406349E1
6.721828208E0,-2.091001740E0,-1.519729706E1,8.066725159E-1,1.536166810E1
6.731831208E0,-1.923050995E0,-1.388527542E1,-7.303312683E-1,1.403682238E1
6.741834208E0,-1.868264923E0,-1.265603165E1,-3.605252838E0,1.329147843E1
6.751837208E0,-1.571881256E0,-1.134850067E1,-7.316335602E0,1.359367665E1
6.761840208E0,-1.240919495E0,-9.467362518E0,-9.188492432E0,1.325138587E1
6.771843208E0,-8.431965637E-1,-6.846013641E0,-8.343649292E0,1.082568089E1
6.781846208E0,-8.012837219E-1,-4.754413147E0,-6.628665619E0,8.196688835E0
6.791849208E0,-1.027613068E0,-3.236120453E0,-5.068909149E0,6.101008455E0
6.801852208E0,-1.097966766E0,-1.816921692E0,-3.738326111E0,4.299048449E0
6.811854208E0,-9.943821716E-1,-7.450007629E-1,-3.122955780E0,3.361052639E0
6.821857208E0,-1.318158875E0,-2.040257263E-1,-2.707719269E0,3.018428888E0
6.831860208E0,-1.211131439E0,2.341131592E-1,-1.915865936E0,2.278637887E0
6.841863208E0,-7.789801025E-1,7.556286621E-1,-1.199006653E0,1.617220340E0
6.851866208E0,-4.504133606E-1,1.343007202E0,-1.072220306E0,1.776568863E0
6.861869208E0,-4.595443726E-2,1.739682312E0,-7.613168335E-1,1.899528804E0
6.871872208E0,2.451901245E-1,1.630708923E0,-1.392105103E-2,1.649097810E0
6.881875208E0,2.924917603E-1,1.087189178E0,7.146139526E-1,1.333493472E0
6.891878208E0,2.682421875E-1,7.894583130E-1,8.824150085E-1,1.214024113E0
6.901881208E0,2.002835083E-1,8.614585876E-1,6.881190491E-1,1.120594578E0
6.911884208E0,1.300794983E-1,9.497749329E-1,6.245013428E-1,1.144113205E0
6.921887208E0,3.487747192E-2,1.037342834E0,8.547225952E-1,1.344562125E0
6.931890208E0,-5.763015747E-2,1.084045715E0,1.453627167E0,1.814251440E0
6.941892708E0,-1.151106262E-1,1.100361786E0,1.863474884E0,2.167160622E0
6.951895708E0,-1.207987976E-1,1.047371979E0,2.120340729E0,2.368000257E0
6.961897708E0,-1.896556091E-1,9.472302246E-1,2.155517578E0,2.362090256E0
6.971900708E0,-2.799179077E-1,8.583151245E-1,1.917213135E0,2.119142537E0
6.981903708E0,-2.995271301E-1,7.767347717E-1,1.572180634E0,1.778984360E0
6.991906708E0,-3.032693481E-1,6.496490479E-1,1.378483429E0,1.553780148E0
7.001909708E0,-2.549198914E-1,1.329235840E-1,1.238075409E0,1.271016738E0
7.011912708E0,9.774673462E-2,-3.095562744E-1,9.559121704E-1,1.009528399E0
7.021915708E0,2.368075562E-1,-5.963598633E-1,1.162931671E0,1.328206677E0
7.031918708E0,2.543211365E-1,-1.599124603E0,2.638862457E0,3.096041635E0
7.041921708E0,-1.530866547E0,-9.965825958E0,5.616021423E0,1.154127099E1
7.051924708E0,-8.825197906E0,-3.557247665E1,6.466103668E0,3.721687400E1
7.061927708E0,-1.538291107E1,-6.169824783E1,8.433761902E0,6.414387016E1
7.071930708E0,-1.638253235E1,-7.488702164E1,7.510781250E0,7.702509468E1
7.081933708E0,-5.482499084E0,-6.748686035E1,-1.004830444E1,6.845073074E1
7.091936708E0,4.696483612E0,-4.073988098E1,-3.021496765E1,5.093858195E1
7.101939708E0,1.462309113E0,-2.039942917E1,-1.788570648E1,2.716934955E1
7.111942708E0,-1.228645020E0,-1.327783859E1,-4.868925018E0,1.419566825E1
7.121944708E0,-2.525548096E0,-8.190218353E0,1.588796082E0,8.716785121E0
7.131947708E0,-3.491938477E0,-4.898862762E0,5.691015472E0,8.281313169E0
7.141950708E0,-3.542383575E0,-2.861449585E0,7.392676849E0,8.682628987E0
7.151953708E0,-3.868405609E0,-1.542691956E0,6.970854034E0,8.120176500E0
7.161956708E0,-4.637356567E0,-5.686674500E-1,4.799469452E0,6.698012065E0
7.171959708E0,-4.066443787E0,3.390449524E-1,3.300486603E0,5.248250029E0
7.181962708E0,-3.145109711E0,9.476792908E-1,2.305954742E0,4.013382414E0
7.191965708E0,-2.484683075E0,1.227148132E0,1.332528992E0,3.074926997E0
7.201968708E0,-1.999691620E0,1.301992493E0,5.173242188E-1,2.441633751E0
7.211971708E0,-1.781295776E0,1.216520233E0,9.849517822E-2,2.159314109E0
7.221974708E0,-1.711540833E0,9.131011963E-1,2.514770508E-2,1.940040779E0
7.231977708E0,-1.591490479E0,1.751358032E-2,1.948947144E-1,1.603475169E0
7.241980708E0,-1.441951447E0,-1.054557037E0,3.502716064E-1,1.820440803E0
7.251983708E0,-1.946402435E0,-2.495011597E0,6.611750793E-1,3.232756996E0
7.261986708E0,-2.789748688E0,-4.928650818E0,7.996371460E-1,5.719590561E0
7.271988708E0,-3.396437073E0,-7.799231415E0,7.638615417E-1,8.540917978E0
7.281991708E0,-3.665427704E0,-1.083566711E1,8.294252014E-1,1.146887040E1
7.291994708E0,-3.714824982E0,-1.381013168E1,7.535330200E-1,1.432087545E1
7.301997708E0,-3.583098907E0,-1.648027908E1,5.120851135E-1,1.687306811E1
7.312000708E0,-3.170556793E0,-1.895328644E1,3.264710999E-1,1.921941936E1
7.322003708E0,-2.403551788E0,-2.089489883E1,2.685415649E-1,2.103439976E1
7.332006708E0,-1.166823578E0,-2.144560364E1,-8.247848511E-2,2.147748112E1
7.342009708E0,3.986210632E-1,-1.955757980E1,-1.135089569E0,1.959454656E1
7.352012708E0,1.229692841E0,-1.550849991E1,-2.506387939E0,1.575778203E1
7.362015708E0,1.127754822E0,-1.164892593E1,-3.196303253E0,1.213200976E1
7.372018708E0,8.029302979E-1,-9.006321259E0,-2.987188110E0,9.522699853E0
7.382021708E0,2.363584900E-1,-7.322622528E0,-2.311044159E0,7.682290747E0
7.392024708E0,-4.495152283E-1,-6.403982849E0,-1.421893158E0,6.575320557E0
7.402027708E0,-1.157393188E0,-5.918093262E0,-1.969903564E-1,6.033422913E0
7.412030708E0,-1.903142395E0,-5.757028198E0,7.318281555E-1,6.107446037E0
7.422032708E0,-2.532433777E0,-5.920937347E0,1.426234131E0,6.595821685E0
7.432035708E0,-3.074007568E0,-6.528673553E0,1.904040527E0,7.463140842E0
7.442038708E0,-3.299887848E0,-7.548502808E0,2.137854309E0,8.511144194E0
7.452041708E0,-3.008743286E0,-8.521180115E0,2.096240845E0,9.276705902E0
7.462044708E0,-2.754122772E0,-9.203161926E0,1.952090607E0,9.802756726E0
7.472047708E0,-2.678380280E0,-9.743687897E0,1.685794373E0,1.024475853E1
7.482050708E0,-2.516716461E0,-1.017539017E1,1.383572845E0,1.057292299E1
7.492053708E0,-2.137255554E0,-1.044917084E1,1.098715210E0,1.072194980E1
7.502056708E0,-1.388362885E0,-1.042252625E1,7.027885437E-1,1.053805089E1
7.512059708E0,-4.688250732E-1,-1.015024246E1,1.945953369E-1,1.016292706E1
7.522062708E0,3.269201660E-1,-1.001821701E1,-3.930825806E-1,1.003125430E1
7.532065708E0,9.842033386E-1,-1.010503647E1,-1.182241516E0,1.022145358E1
7.542068708E0,1.453926544E0,-1.034813095E1,-2.232008514E0,1.068548448E1
7.552071708E0,1.679806824E0,-1.070573730E1,-3.502566376E0,1.138870201E1
7.562074708E0,1.729653168E0,-1.094119766E1,-4.546645203E0,1.197386692E1
7.572077708E0,1.586251373E0,-1.074555450E1,-4.726121979E0,1.184564747E1
7.582079708E0,1.163680115E0,-1.003468277E1,-3.931424561E0,1.083997734E1
7.592082708E0,3.143463135E-1,-9.264085236E0,-2.618804169E0,9.632249173E0
7.602085708E0,-7.743397522E-1,-8.692873077E0,-1.367256775E0,8.833744137E0
7.612088708E0,-1.751058655E0,-8.117319946E0,-4.516108704E-1,8.316311797E0
7.622091708E0,-2.505938873E0,-7.493117981E0,1.043330383E-1,7.901736018E0
7.632094708E0,-3.075504456E0,-6.804400177E0,3.517684937E-2,7.467250286E0
7.642097708E0,-3.402723999E0,-6.216722260E0,-5.496569824E-1,7.108325335E0
7.652100708E0,-3.486399994E0,-6.027515717E0,-1.038240967E0,7.040161570E0
7.662103708E0,-3.636537781E0,-6.244863739E0,-1.245410156E0,7.333060521E0
7.672106708E0,-4.219275970E0,-6.390061798E0,-1.479373627E0,7.798956714E0
7.682109708E0,-5.038073273E0,-6.389612732E0,-3.236270142E-1,8.143344989E0
7.692112708E0,-4.941823425E0,-6.274951172E0,1.287173309E0,8.090330408E0
7.702115708E0,-3.822750549E0,-6.897656250E0,5.722599792E-1,7.906868216E0
7.712118708E0,-2.773582306E0,-8.972940674E0,-1.896705780E0,9.581436007E0
7.722120708E0,-2.499053192E0,-1.212792984E1,-3.182980957E0,1.278527735E1
7.732123708E0,-3.035836945E0,-1.501093460E1,-1.339264984E0,1.537329159E1
7.742126708E0,-3.596421204E0,-1.658251648E1,1.797312469E0,1.706295491E1
7.752129708E0,-3.179987183E0,-1.784259613E1,3.088527374E0,1.838503621E1
7.762132708E0,-1.727407837E0,-1.923200684E1,2.772384796E0,1.950743813E1
7.772135708E0,7.933502197E-3,-1.994991394E1,2.148631897E0,2.006528714E1
7.782138708E0,1.228345642E0,-1.954036560E1,1.729503479E0,1.965517497E1
7.792141708E0,1.778900757E0,-1.900103714E1,1.594184875E0,1.915059596E1
7.802144708E0,1.719025269E0,-1.905507477E1,1.491348724E0,1.919049357E1
7.812147708E0,1.325493622E0,-1.966535568E1,1.553768921E0,1.977112403E1
7.822150708E0,5.873785400E-1,-2.005739044E1,1.604214020E0,2.013001310E1
7.832153708E0,-3.986210632E-1,-1.984528152E1,1.457219696E0,1.990270300E1
7.842156708E0,-1.209185486E0,-1.910791489E1,1.290167084E0,1.918955633E1
7.852159708E0,-2.011666718E0,-1.805231003E1,7.316784668E-1,1.817878031E1
7.862162708E0,-3.108136597E0,-1.705134155E1,-3.246748352E-1,1.733534469E1
7.872164708E0,-4.232298889E0,-1.572809326E1,-1.765129395E0,1.638294703E1
7.882167708E0,-5.085823975E0,-1.395667694E1,-3.687881012E0,1.530538804E1
7.892170708E0,-5.364244995E0,-1.176867691E1,-5.690716095E0,1.413014969E1
7.902173708E0,-5.133724365E0,-9.482481079E0,-6.724915466E0,1.270814941E1
7.912176708E0,-4.250411224E0,-7.249424744E0,-6.012397156E0,1.033291219E1
7.922179708E0,-3.109334106E0,-5.485792236E0,-4.255650330E0,7.607393428E0
7.932182708E0,-2.212548981E0,-4.096830597E0,-2.682721252E0,5.373675395E0
7.942185708E0,-1.548679504E0,-3.062780914E0,-1.592089233E0,3.783356085E0
7.952189000E0,-8.644523621E-1,-2.232906647E0,-6.605763245E-1,2.483850048E0
7.962192000E0,-1.326242065E-1,-1.506167908E0,-2.245330811E-3,1.511997350E0
7.972195000E0,5.414241028E-1,-9.225315857E-1,2.305206299E-1,1.094232309E0
7.982198000E0,9.138496399E-1,-4.038601685E-1,4.391867065E-1,1.091379477E0
7.992201000E0,1.071022797E0,7.873626709E-2,8.000862122E-1,1.339189000E0
8.002204000E0,1.137783966E0,4.608915710E-1,1.124461670E0,1.664748462E0
8.012207000E0,1.209335175E0,6.107299805E-1,1.468446350E0,1.997953292E0
8.022209000E0,1.214424591E0,5.816903687E-1,1.649869080E0,2.129614696E0
8.032212000E0,1.120719452E0,5.863307190E-1,1.599423981E0,2.039105900E0
8.042215000E0,9.666897583E-1,6.451583862E-1,1.253792725E0,1.709594873E0
8.052218000E0,8.675958252E-1,6.800358582E-1,7.011419678E-1,1.306434592E0
8.062221000E0,8.553213501E-1,6.927593994E-1,3.290158081E-1,1.148800069E0
8.072224000E0,8.943901062E-1,6.700067139E-1,1.619631958E-1,1.129192072E0
8.082227000E0,9.139993286E-1,6.213578796E-1,1.815724182E-1,1.120021844E0
8.092230000E0,9.523196411E-1,6.092330933E-1,4.629872131E-1,1.221652496E0
8.102233000E0,1.025218048E0,6.183641052E-1,9.894424438E-1,1.553203967E0
8.112236000E0,1.001567230E0,5.954617310E-1,1.395398254E0,1.817924057E0
8.122239000E0,8.653504944E-1,5.243595886E-1,1.363065491E0,1.697566490E0
8.132242000E0,6.827302551E-1,4.484674072E-1,1.190025330E0,1.443400118E0
8.142245000E0,4.306544495E-1,3.785627747E-1,1.016536102E0,1.167098401E0
8.152248000E0,2.318678284E-1,2.160008240E-1,8.509803772E-1,9.080675350E-1
8.162250000E0,1.585203552E-1,-1.853146362E-1,7.967930603E-1,8.332763037E-1
8.172253000E0,7.551795959E-1,-1.222208405E0,1.582658844E0,2.137498216E0
8.182256000E0,2.991229706E0,-7.021748199E0,1.731898499E0,7.826357731E0
8.192259000E0,5.652395782E0,-1.487127502E1,-4.952451324E0,1.666226794E1
8.202262000E0,4.355492706E0,-3.485382111E1,-4.397704926E0,3.539913800E1
8.212265000E0,1.405577087E0,-6.501085922E1,-2.539918213E0,6.507563790E1
8.222268000E0,-1.774859161E0,-7.508491013E1,-2.494412842E0,7.514729502E1
8.232271000E0,-1.801354065E0,-5.602010559E1,-5.936654663E-1,5.605220375E1
8.242274000E0,-1.372196503E0,-3.251119263E1,2.868035889E-1,3.254140171E1
8.252277000E0,-1.601669312E0,-1.999691620E1,2.779869232E0,2.025264612E1
8.262280000E0,-1.002315674E0,-1.231608856E1,4.534071350E0,1.316238873E1
8.272283000E0,-3.350033569E-1,-7.143445129E0,4.535418549E0,8.468238127E0
8.282286000E0,-6.547384644E-1,-4.224215698E0,2.728675690E0,5.071326428E0
8.292289000E0,-1.046623535E0,-2.136507111E0,7.728428650E-1,2.501473476E0
8.302292000E0,-1.044827271E0,-5.180726624E-1,-4.854405212E-1,1.263216453E0
8.312294000E0,-6.526428223E-1,4.496649170E-1,-1.163680115E0,1.407939132E0
8.322297000E0,-1.161584473E-1,9.150471497E-1,-1.299447784E0,1.593539650E0
8.332300000E0,1.814227295E-1,1.023721161E0,-1.146166534E0,1.547454990E0
8.342303000E0,2.462379456E-1,9.605525208E-1,-9.467811584E-1,1.371017444E0
8.352306000E0,2.865042114E-1,8.096662903E-1,-8.828640747E-1,1.231703349E0
8.362309000E0,5.511538696E-1,5.180726624E-1,-8.809181213E-1,1.161114382E0
8.372312000E0,7.234455872E-1,-1.812730408E-1,-1.009650421E0,1.255239979E0
8.382315000E0,5.029541016E-1,-9.843530273E-1,-9.479786682E-1,1.456220198E0
8.392318000E0,3.589535522E-1,-2.193538513E0,-8.846603394E-1,2.392296549E0
8.402321000E0,-8.696914673E-2,-4.906347198E0,-1.375040588E0,5.096130207E0
8.412324000E0,-1.098565521E0,-9.397757263E0,-2.336341553E0,9.745931440E0
8.422327000E0,-2.543510742E0,-1.388183258E1,-3.198398895E0,1.447081470E1
8.432330000E0,-3.349584503E0,-1.756582169E1,-3.172951813E0,1.816164726E1
8.442333000E0,-2.728526001E0,-1.948722610E1,-2.023342438E0,1.978107050E1
8.452336000E0,-1.446142731E0,-1.956895615E1,-6.068380737E-1,1.963169952E1
8.462339000E0,-2.761756897E-1,-1.859463226E1,3.221301270E-1,1.859947284E1
8.472341000E0,1.489402771E-1,-1.696287552E1,1.321152649E0,1.701489857E1
8.482344000E0,-4.203259277E-1,-1.490510468E1,2.328258362E0,1.509170654E1
8.492347000E0,-1.053060150E0,-1.252670059E1,2.690205688E0,1.285551905E1
8.502350000E0,-1.459165649E0,-1.043779449E1,2.605032806E0,1.085646877E1
8.512353000E0,-1.613195343E0,-9.067244568E0,2.245929565E0,9.479531786E0
8.522356000E0,-1.598675537E0,-8.016429749E0,1.832938385E0,8.377265217E0
8.532359000E0,-1.541195068E0,-7.052284698E0,1.431173859E0,7.359229601E0
8.542362000E0,-1.535955963E0,-6.279441833E0,8.526269531E-1,6.520546233E0
8.552365000E0,-1.630858612E0,-5.947731628E0,1.417552185E-1,6.168898271E0
8.562368000E0,-1.830393677E0,-6.273154907E0,-7.517367554E-1,6.577835636E0
8.572371000E0,-2.270478516E0,-7.251370697E0,-1.628762970E0,7.771120800E0
8.582374000E0,-2.672392731E0,-8.288264465E0,-2.385589142E0,9.029288250E0
8.592377000E0,-2.778522034E0,-9.203012238E0,-2.918630676E0,1.004659265E1
8.602380000E0,-2.613115997E0,-9.985435181E0,-3.093467102E0,1.077528792E1
8.612382000E0,-2.140099640E0,-1.070453979E1,-2.726729736E0,1.125176669E1
8.622385000E0,-1.365011444E0,-1.122800125E1,-1.914069672E0,1.147148338E1
8.632388000E0,-4.562512207E-1,-1.133158585E1,-7.698490906E-1,1.136686723E1
8.642391000E0,4.432283020E-1,-1.101634140E1,6.183641052E-1,1.104258137E1
8.652394000E0,1.198258209E0,-1.068642746E1,1.796564026E0,1.090243995E1
8.662397000E0,1.455573120E0,-1.039124130E1,2.337838440E0,1.074998035E1
8.672400000E0,1.571881256E0,-1.001058289E1,2.507585449E0,1.043889674E1
8.682403000E0,1.660047913E0,-9.566456451E0,2.283950500E0,9.974431212E0
8.692406000E0,1.529219971E0,-9.251212006E0,2.093995514E0,9.607718486E0
8.702409000E0,1.241218872E0,-9.128766632E0,1.951042786E0,9.417089384E0
8.712412000E0,8.711883545E-1,-9.158854065E0,1.832938385E0,9.381004214E0
8.722415000E0,3.213816833E-1,-9.324709167E0,1.745370483E0,9.492091728E0
8.732418000E0,-3.480262756E-1,-9.535321198E0,1.600022736E0,9.674892526E0
8.742421000E0,-1.196461945E0,-9.763895874E0,1.389261017E0,9.934547297E0
8.752424000E0,-2.055375824E0,-1.003872437E1,1.094523926E0,1.030526755E1
8.762426000E0,-2.791844330E0,-1.015757721E1,6.246510315E-1,1.055277018E1
8.772429000E0,-3.395988007E0,-1.011581406E1,-4.730163574E-2,1.067073878E1
8.782432000E0,-3.900588684E0,-9.965825958E0,-8.919950867E-1,1.073908443E1
8.792435000E0,-4.325105896E0,-9.809101868E0,-1.716779938E0,1.085690351E1
8.802438000E0,-4.653972015E0,-9.706265717E0,-2.328108673E0,1.101322567E1
8.812441000E0,-4.764142914E0,-9.618398438E0,-2.490970001E0,1.101887371E1
8.822444000E0,-4.566254425E0,-9.527387695E0,-2.144141235E0,1.078049801E1
8.832447000E0,-3.968397675E0,-9.435478821E0,-1.366957397E0,1.032690724E1
8.842450000E0,-3.047812042E0,-9.441166992E0,-4.577481079E-1,9.931481549E0
8.852453000E0,-2.136207733E0,-9.630822601E0,3.501219177E-1,9.871104944E0
8.862456000E0,-1.385818176E0,-9.742340698E0,1.001567230E0,9.891250235E0
8.872459000E0,-8.066725159E-1,-9.837991791E0,1.403631134E0,9.970305080E0
8.882462000E0,-4.029620361E-1,-9.954449615E0,1.597627716E0,1.008988899E1
8.892465000E0,-7.095245361E-2,-1.004486160E1,1.649420013E0,1.017962992E1
8.902467000E0,1.326242065E-1,-1.006042923E1,1.573078766E0,1.018353584E1
8.912470000E0,2.627037048E-1,-1.001701950E1,1.478176117E0,1.012890406E1
8.922473000E0,2.284249878E-1,-9.919422455E0,1.344204712E0,1.001269225E1
8.932476000E0,7.933502197E-2,-9.765093384E0,1.175355835E0,9.835893664E0
8.942479000E0,-5.583389282E-2,-9.594298553E0,9.813592529E-1,9.644519073E0
8.952481583E0,-2.466870117E-1,-9.458231506E0,7.723937988E-1,9.492923148E0
8.962484583E0,-5.303471375E-1,-9.399703217E0,6.186634827E-1,9.434958036E0
8.972487583E0,-7.849676514E-1,-9.412875824E0,5.263055420E-1,9.460201003E0
8.982490583E0,-9.725276184E-1,-9.437275085E0,4.586462402E-1,9.498332874E0
8.992493583E0,-1.061592407E0,-9.378597107E0,4.213737488E-1,9.447889604E0
9.002496583E0,-1.176553345E0,-9.330696716E0,5.236111450E-1,9.419147924E0
9.012499583E0,-1.327289886E0,-9.317224731E0,6.863227844E-1,9.436281794E0
9.022502583E0,-1.509910126E0,-9.323511658E0,9.065148926E-1,9.488385925E0
9.032505583E0,-1.709145813E0,-9.364226990E0,1.092428284E0,9.581405225E0
9.042508583E0,-1.866768036E0,-9.481133881E0,1.221609650E0,9.740074574E0
9.052510583E0,-1.979034576E0,-9.614356842E0,1.201401672E0,9.889175968E0
9.062513583E0,-2.090552673E0,-9.740694122E0,1.017434235E0,1.001432498E1
9.072516583E0,-2.092049561E0,-9.730215912E0,7.387138367E-1,9.979953466E0
9.082519583E0,-1.952240295E0,-9.594148865E0,5.035528564E-1,9.803698286E0
9.092522583E0,-1.806742859E0,-9.497599640E0,3.005749512E-1,9.672593446E0
9.102525583E0,-1.673370209E0,-9.469158783E0,1.755848694E-1,9.617482309E0
9.112528583E0,-1.579515381E0,-9.489366760E0,1.621128845E-1,9.621290503E0
9.122531583E0,-1.519190826E0,-9.567803650E0,1.610650635E-1,9.689001466E0
9.132534583E0,-1.435814209E0,-9.736502838E0,1.646575928E-1,9.843178454E0
9.142537583E0,-1.403331757E0,-9.919572144E0,1.886077881E-1,1.002012098E1
9.152540583E0,-1.350491638E0,-1.006027954E1,2.399510193E-1,1.015335553E1
9.162543583E0,-1.257534943E0,-1.007584717E1,3.144960022E-1,1.015888764E1
9.172546583E0,-1.163231049E0,-9.976154480E0,4.209246826E-1,1.005255899E1
9.182549583E0,-1.023272095E0,-9.787846069E0,5.248086548E-1,9.855173290E0
9.192551583E0,-8.949888611E-1,-9.643995209E0,6.491999817E-1,9.707167932E0
9.202554583E0,-8.475375366E-1,-9.583221588E0,7.845185852E-1,9.652560556E0
9.212557583E0,-8.737330627E-1,-9.582323456E0,9.134005737E-1,9.665331494E0
9.222560583E0,-1.005159760E0,-9.679621124E0,1.045276337E0,9.787645982E0
9.232563583E0,-1.192120972E0,-9.794881439E0,1.126856689E0,9.931297036E0
9.242566583E0,-1.443448334E0,-9.855056305E0,1.134490814E0,1.002460709E1
9.252569583E0,-1.663790131E0,-9.863139496E0,1.083297272E0,1.006097666E1
9.262572583E0,-1.794019318E0,-9.784852295E0,1.018182678E0,9.999926785E0
9.272575583E0,-1.879491577E0,-9.626032562E0,9.451345825E-1,9.853236568E0
9.282578583E0,-1.930535431E0,-9.426497498E0,9.006770325E-1,9.664214466E0
9.292581583E0,-1.925446014E0,-9.260642395E0,8.577163696E-1,9.497500581E0
9.302584583E0,-1.869612122E0,-9.137298889E0,8.566685486E-1,9.365872169E0
9.312587583E0,-1.829944611E0,-9.105265503E0,8.714877319E-1,9.328132076E0
9.322590583E0,-1.820065155E0,-9.124874725E0,9.391470337E-1,9.351896763E0
9.332593583E0,-1.830543365E0,-9.178912354E0,1.026864624E0,9.415825612E0
9.342595583E0,-1.813927917E0,-9.220376129E0,1.132544861E0,9.465111109E0
9.352598583E0,-1.752405853E0,-9.225315857E0,1.218615875E0,9.469023370E0
9.362601583E0,-1.682052155E0,-9.208401031E0,1.260229340E0,9.445217149E0
9.372604583E0,-1.670526123E0,-9.220076752E0,1.308878174E0,9.461164564E0
9.382607583E0,-1.677112427E0,-9.219477997E0,1.357377319E0,9.468577180E0
9.392610583E0,-1.703307953E0,-9.241482239E0,1.327289886E0,9.490413605E0
9.402613583E0,-1.702858887E0,-9.260492706E0,1.279539185E0,9.502298358E0
9.412616583E0,-1.680405579E0,-9.254654846E0,1.191821594E0,9.481183362E0
9.422619583E0,-1.672771454E0,-9.267528076E0,1.109343109E0,9.482398595E0
9.432622583E0,-1.653611298E0,-9.339079285E0,1.072220306E0,9.544762364E0
9.442625583E0,-1.627565460E0,-9.489067383E0,1.030457153E0,9.682624183E0
9.452628583E0,-1.603615265E0,-9.745783539E0,9.339079285E-1,9.920890218E0
9.462631583E0,-1.562001801E0,-1.000384689E1,8.050259399E-1,1.015701083E1
9.472634583E0,-1.445394287E0,-1.023960663E1,6.529421997E-1,1.036171038E1
9.482636583E0,-1.327140198E0,-1.041429337E1,4.828958130E-1,1.050961444E1
9.492639583E0,-1.229393463E0,-1.053733749E1,3.131488037E-1,1.061343262E1
9.502642583E0,-1.109492798E0,-1.066547104E1,2.109114075E-1,1.072509815E1
9.512645583E0,-9.918374634E-1,-1.068238586E1,1.163081360E-1,1.072896253E1
9.522648583E0,-9.029223633E-1,-1.063403641E1,5.448669434E-2,1.067243964E1
9.532651583E0,-8.693920898E-1,-1.050246002E1,8.427474976E-2,1.053871963E1
9.542654583E0,-8.325686646E-1,-1.029229706E1,1.399589539E-1,1.032686486E1
9.552657583E0,-8.554710388E-1,-1.010533585E1,2.752775574E-1,1.014521666E1
9.562660583E0,-9.400451660E-1,-9.909093933E0,4.875361633E-1,9.965516494E0
9.572663583E0,-1.027613068E0,-9.723180542E0,7.430548096E-1,9.805526958E0
9.582666583E0,-1.086291046E0,-9.575737152E0,1.036594391E0,9.692744615E0
9.592669583E0,-1.150806885E0,-9.460626526E0,1.347198486E0,9.625110623E0
9.602672583E0,-1.196162567E0,-9.439670105E0,1.600920868E0,9.648892382E0
9.612675583E0,-1.216370544E0,-9.452543335E0,1.805545349E0,9.700006537E0
9.622678583E0,-1.281634827E0,-9.474098511E0,1.967658234E0,9.760779136E0
9.632680583E0,-1.355281677E0,-9.480984192E0,2.062860260E0,9.797001691E0
9.642683583E0,-1.457818451E0,-9.501491547E0,2.091450806E0,9.837567927E0
9.652686583E0,-1.565744019E0,-9.474547577E0,2.019899597E0,9.813185033E0
9.662689583E0,-1.693278809E0,-9.455537109E0,1.902244263E0,9.792492450E0
9.672692583E0,-1.751358032E0,-9.457033997E0,1.678010559E0,9.763117658E0
9.682695583E0,-1.794468384E0,-9.499246216E0,1.415755920E0,9.770371553E0
9.692698583E0,-1.842219086E0,-9.545350342E0,1.141376495E0,9.788269746E0
9.702701583E0,-1.892065430E0,-9.580676880E0,8.904981995E-1,9.806236185E0
9.712704583E0,-1.936073914E0,-9.634564819E0,7.228468323E-1,9.853716507E0
9.722707583E0,-1.972148895E0,-9.668693848E0,6.117778015E-1,9.886722615E0
9.732710583E0,-1.992506561E0,-9.629475403E0,6.363267517E-1,9.854024085E0
9.742713583E0,-1.990560608E0,-9.569001160E0,7.319778442E-1,9.801219633E0
9.752716583E0,-1.950743408E0,-9.555379486E0,8.451425171E-1,9.789021547E0
9.762719583E0,-1.881886597E0,-9.560169525E0,1.010548553E0,9.795894390E0
9.772722583E0,-1.796114960E0,-9.579329681E0,1.172511749E0,9.816535534E0
9.782724583E0,-1.671573944E0,-9.593101044E0,1.285826111E0,9.822173684E0
9.792727583E0,-1.556613007E0,-9.598340149E0,1.385668488E0,9.821978152E0
9.802730583E0,-1.439706116E0,-9.567504272E0,1.456770630E0,9.784276793E0
9.812733583E0,-1.352437592E0,-9.543254700E0,1.515598297E0,9.757040325E0
9.822736583E0,-1.266965332E0,-9.495653687E0,1.531764679E0,9.701491799E0
9.832739583E0,-1.185983734E0,-9.469607849E0,1.536704407E0,9.666513884E0
9.842742583E0,-1.155596924E0,-9.494456177E0,1.503174133E0,9.681923095E0
9.852745583E0,-1.115330658E0,-9.556427307E0,1.447789307E0,9.729612491E0
9.862748583E0,-1.128952332E0,-9.642348633E0,1.352587280E0,9.801985150E0
9.872751583E0,-1.166823578E0,-9.715546417E0,1.253643036E0,9.865340354E0
9.882754583E0,-1.182690582E0,-9.734407196E0,1.116977234E0,9.869401127E0
9.892757583E0,-1.180445251E0,-9.707014160E0,9.621990967E-1,9.825751981E0
9.902760583E0,-1.185085602E0,-9.682165833E0,8.376580811E-1,9.790323496E0
9.912763583E0,-1.224453735E0,-9.654473419E0,7.906558228E-1,9.763876309E0
9.922765583E0,-1.264270935E0,-9.658215637E0,8.026309204E-1,9.773624030E0
9.932768583E0,-1.295705566E0,-9.658964081E0,8.900491333E-1,9.786042484E0
9.942771583E0,-1.306333466E0,-9.667945404E0,1.002465363E0,9.807171471E0
9.952774583E0,-1.335223389E0,-9.678722992E0,1.107696533E0,9.832979806E0
9.962777583E0,-1.338067474E0,-9.647138672E0,1.177451477E0,9.810407795E0
9.972780583E0,-1.324595490E0,-9.592502289E0,1.217568054E0,9.759770763E0
9.982783583E0,-1.312919769E0,-9.520951080E0,1.224753113E0,9.688771232E0
9.992786583E0,-1.311572571E0,-9.513616333E0,1.232985992E0,9.682425977E0
1.000278958E1,-1.325942688E0,-9.539063416E0,1.208137665E0,9.706258366E0
1.001279258E1,-1.343007202E0,-9.604028320E0,1.196461945E0,9.771005553E0
1.002279558E1,-1.391206970E0,-9.648186493E0,1.169517975E0,9.817878168E0
1.003279858E1,-1.401685181E0,-9.642947388E0,1.125060425E0,9.809022205E0
1.004280158E1,-1.427731018E0,-9.616901550E0,1.075812836E0,9.781645288E0
1.005280458E1,-1.470242615E0,-9.565857697E0,1.056952057E0,9.735727732E0
1.006280658E1,-1.481169891E0,-9.523944855E0,1.040635986E0,9.694447540E0
1.007280958E1,-1.481618958E0,-9.510772247E0,1.052162018E0,9.682821303E0
1.008281258E1,-1.499431915E0,-9.553283844E0,1.073866882E0,9.729682336E0
1.009281558E1,-1.488654327E0,-9.605375519E0,1.119372253E0,9.784289693E0
1.010281858E1,-1.437460785E0,-9.681716766E0,1.158141632E0,9.856126272E0
1.011282158E1,-1.392853546E0,-9.703870697E0,1.158141632E0,9.871496317E0
1.012282458E1,-1.383273468E0,-9.674681396E0,1.153950348E0,9.840960675E0
1.013282758E1,-1.391506348E0,-9.622589722E0,1.081351318E0,9.782629684E0
1.014283058E1,-1.434766388E0,-9.638307037E0,1.039737854E0,9.799825097E0
1.015283358E1,-1.491498413E0,-9.672136688E0,9.928852844E-1,9.836697455E0
1.016283658E1,-1.518891449E0,-9.684560852E0,9.605525208E-1,9.849893973E0
1.017283958E1,-1.542841644E0,-9.686057739E0,9.575587463E-1,9.854795463E0
1.018284258E1,-1.559756470E0,-9.676028595E0,1.003513184E0,9.852177847E0
1.019284558E1,-1.577270050E0,-9.665101318E0,1.030906219E0,9.847067174E0
1.020284758E1,-1.535806274E0,-9.663754120E0,1.051413574E0,9.841357381E0
1.021285058E1,-1.472637634E0,-9.672885132E0,1.064586182E0,9.842088808E0
1.022285358E1,-1.364562378E0,-9.669142914E0,1.075363770E0,9.823989129E0
1.023285658E1,-1.299298096E0,-9.668993225E0,1.068777466E0,9.814269754E0
1.024285958E1,-1.270857239E0,-9.671987000E0,1.057251434E0,9.812247002E0
1.025286258E1,-1.300345917E0,-9.683962097E0,1.050665131E0,9.827202991E0
1.026286558E1,-1.318458252E0,-9.693542175E0,1.051563263E0,9.839150236E0
1.027286858E1,-1.368005219E0,-9.684560852E0,1.026714935E0,9.834444607E0
1.028287158E1,-1.395547943E0,-9.646689606E0,1.038091278E0,9.802234843E0
1.029287458E1,-1.406026154E0,-9.594148865E0,9.978250122E-1,9.747833438E0
1.030287758E1,-1.423988800E0,-9.605375519E0,9.883946228E-1,9.760528003E0
1.031288058E1,-1.434467010E0,-9.651030579E0,9.720785522E-1,9.805356880E0
1.032288358E1,-1.409019928E0,-9.689500580E0,9.662406921E-1,9.838972493E0
1.033288658E1,-1.382375336E0,-9.683213654E0,9.889933777E-1,9.831261167E0
1.034288958E1,-1.351090393E0,-9.637408905E0,1.025517426E0,9.785539415E0
1.035289158E1,-1.336420898E0,-9.570647736E0,1.068777466E0,9.722427895E0
1.036289458E1,-1.329385529E0,-9.516310730E0,1.074914703E0,9.668654374E0
1.037289758E1,-1.299148407E0,-9.502389679E0,1.078956299E0,9.651287110E0
1.038290058E1,-1.289119263E0,-9.516610107E0,1.091230774E0,9.665323637E0
1.039290358E1,-1.276096344E0,-9.541907501E0,1.109941864E0,9.690634220E0
1.040290658E1,-1.261875916E0,-9.540260925E0,1.133442993E0,9.689871122E0
1.041290958E1,-1.262774048E0,-9.545949097E0,1.108744354E0,9.692732148E0
1.042291258E1,-1.256786499E0,-9.543105011E0,1.074465637E0,9.685289978E0
1.043291558E1,-1.255888367E0,-9.546847229E0,1.021775208E0,9.683159204E0
1.044291858E1,-1.235830078E0,-9.600735168E0,9.728269958E-1,9.728709273E0
1.045292158E1,-1.241218872E0,-9.657167816E0,9.557624817E-1,9.783404133E0
1.046292458E1,-1.243314514E0,-9.700577545E0,9.250762939E-1,9.823583961E0
1.047292758E1,-1.230141907E0,-9.733509064E0,8.928932190E-1,9.851482432E0
1.048293058E1,-1.223405914E0,-9.725874939E0,8.649014282E-1,9.840600583E0
1.049293258E1,-1.224603424E0,-9.731862488E0,8.343649292E-1,9.844031992E0
1.050293558E1,-1.233734436E0,-9.739945679E0,8.211923218E-1,9.852055588E0
1.051293858E1,-1.263223114E0,-9.727222137E0,8.063731384E-1,9.841992724E0
1.052294158E1,-1.300046539E0,-9.710606689E0,8.527766418E-1,9.834288550E0
1.053294458E1,-1.328337708E0,-9.673483887E0,8.726852417E-1,9.803180663E0
1.054294758E1,-1.336121521E0,-9.627080383E0,9.023236084E-1,9.761151844E0
1.055295058E1,-1.401385803E0,-9.596094818E0,9.511221313E-1,9.744411282E0
1.056295358E1,-1.460662537E0,-9.572444000E0,9.741741943E-1,9.732123846E0
1.057295658E1,-1.521286469E0,-9.550290070E0,9.650431824E-1,9.718727349E0
1.058295958E1,-1.595681763E0,-9.540111237E0,9.684860229E-1,9.721002411E0
1.059296258E1,-1.632355499E0,-9.635762329E0,9.506730652E-1,9.819179162E0
1.060296558E1,-1.660197601E0,-9.720186768E0,9.580078125E-1,9.907374316E0
1.061296858E1,-1.660496979E0,-9.647887115E0,9.862989807E-1,9.839296809E0
1.062297158E1,-1.695524139E0,-9.578431549E0,9.955796814E-1,9.778155856E0
1.063297458E1,-1.728305969E0,-9.627529449E0,9.626481628E-1,9.828685381E0
1.064297658E1,-1.767674103E0,-9.621841278E0,9.723779297E-1,9.831074212E0
1.065297958E1,-1.755100250E0,-9.647288361E0,1.002165985E0,9.856717824E0
1.066298258E1,-1.708996124E0,-9.755812683E0,1.009201355E0,9.955653481E0
1.067298558E1,-1.653910675E0,-9.778415680E0,1.016685791E0,9.969276991E0
1.068298858E1,-1.586999817E0,-9.623038788E0,1.007255402E0,9.804897112E0
1.069299158E1,-1.478924561E0,-9.492659912E0,1.001417542E0,9.659226012E0
1.070299458E1,-1.421294403E0,-9.528884583E0,9.508227539E-1,9.681104435E0
1.071299758E1,-1.490749969E0,-9.758656769E0,9.812095642E-1,9.920508536E0
1.072300058E1,-1.512903900E0,-9.872719574E0,1.100062408E0,1.004836341E1
1.073300358E1,-1.575922852E0,-9.977351990E0,1.176253967E0,1.016929983E1
1.074300658E1,-1.684596863E0,-1.010922775E1,1.212778015E0,1.032013483E1
1.075300958E1,-1.777254181E0,-1.014290771E1,1.223854980E0,1.036990985E1
1.076301258E1,-1.827250214E0,-1.024230103E1,1.204245758E0,1.047347991E1
1.077301558E1,-1.957778778E0,-1.045830185E1,1.253792725E0,1.071358817E1
1.078301758E1,-2.031425629E0,-1.011910721E1,1.267713776E0,1.039856331E1
1.079302058E1,-1.866618347E0,-9.243428192E0,1.162033539E0,9.501344681E0
1.080302358E1,-1.353934479E0,-8.256680145E0,8.860075378E-1,8.413733710E0
1.081302658E1,-5.740562439E-1,-7.751480713E0,6.370751953E-1,7.798772892E0
1.082302958E1,-4.655319214E-2,-7.610174561E0,6.213578796E-1,7.635640750E0
1.083303258E1,1.305285645E-1,-7.506889343E0,6.839277649E-1,7.539110193E0
1.084303558E1,1.347198486E-1,-7.582931213E0,7.720944214E-1,7.623327687E0
1.085303858E1,1.140628052E-1,-7.987090759E0,8.858578491E-1,8.036875839E0
1.086304158E1,9.550140381E-2,-8.613987122E0,1.011895752E0,8.673743578E0
1.087304458E1,1.366658020E-1,-9.333241425E0,1.097517700E0,9.398543405E0
1.088304758E1,-3.233276367E-2,-1.009815079E1,1.234632568E0,1.017339728E1
1.089305058E1,-5.701643372E-1,-1.085288132E1,1.463356934E0,1.096592603E1
1.090305358E1,-1.142274628E0,-1.143442200E1,1.671873322E0,1.161231924E1
1.091305658E1,-1.662891998E0,-1.172062683E1,1.718875580E0,1.196214180E1
1.092305958E1,-2.088007965E0,-1.168964127E1,1.559606781E0,1.197663824E1
1.093306158E1,-2.426304474E0,-1.139580231E1,1.301693115E0,1.172372247E1
1.094306458E1,-2.669249268E0,-1.092353439E1,9.854008484E-1,1.128802508E1
1.095306783E1,-2.803220673E0,-1.048958679E1,5.548960876E-1,1.087186216E1
1.096307083E1,-2.814896393E0,-1.012210098E1,1.002914429E-1,1.050669446E1
1.097307383E1,-2.689307556E0,-9.779164124E0,-3.382965088E-1,1.014785054E1
1.098307683E1,-2.521805878E0,-9.569599915E0,-6.068380737E-1,9.914887788E0
1.099307983E1,-2.159110107E0,-9.451944580E0,-7.018904114E-1,9.720785099E0
1.100308283E1,-1.688638458E0,-9.387279053E0,-5.758525085E-1,9.555318622E0
1.101308583E1,-1.217268677E0,-9.365574188E0,-1.796264648E-1,9.446056774E0
1.102308883E1,-8.529263306E-1,-9.377399597E0,3.293151855E-1,9.421865793E0
1.103309183E1,-6.586303711E-1,-9.425898743E0,7.879614258E-1,9.481679402E0
1.104309483E1,-5.754034424E-1,-9.496402130E0,1.175505524E0,9.586164811E0
1.105309783E1,-5.779481506E-1,-9.518106995E0,1.448388062E0,9.645009736E0
1.106310083E1,-6.301895142E-1,-9.527387695E0,1.683399353E0,9.695467421E0
1.107310283E1,-7.209008789E-1,-9.570947113E0,1.877845001E0,9.780032135E0
1.108310583E1,-9.208850098E-1,-9.534872131E0,1.993105316E0,9.784389841E0
1.109310883E1,-1.103654938E0,-9.454938354E0,2.086511078E0,9.745124011E0
1.110311183E1,-1.273102570E0,-9.380243683E0,2.122735748E0,9.701328196E0
1.111311483E1,-1.414408722E0,-9.420809326E0,2.085313568E0,9.751960473E0
1.112311783E1,-1.495689697E0,-9.545799408E0,2.007325745E0,9.868572878E0
1.113312083E1,-1.556014252E0,-9.559421082E0,1.858684845E0,9.861968420E0
1.114312383E1,-1.555864563E0,-9.495503998E0,1.659149780E0,9.764122526E0
1.115312683E1,-1.452729034E0,-9.429790649E0,1.366957397E0,9.638461800E0
1.116312983E1,-1.303489380E0,-9.376052399E0,1.081650696E0,9.527823013E0
1.117313283E1,-1.172362061E0,-9.372609558E0,7.866142273E-1,9.478343984E0
1.118313583E1,-1.070124664E0,-9.412277069E0,5.197192383E-1,9.487161562E0
1.119313883E1,-1.057550812E0,-9.467661896E0,3.511697388E-1,9.533013987E0
1.120314183E1,-1.100212097E0,-9.558073883E0,2.668949890E-1,9.624888360E0
1.121314383E1,-1.179247742E0,-9.650431824E0,2.656974792E-1,9.725844682E0
1.122314683E1,-1.293460236E0,-9.759854279E0,3.326083374E-1,9.850808252E0
1.123314983E1,-1.412612457E0,-9.860744476E0,4.364923096E-1,9.970971924E0
1.124315283E1,-1.511257324E0,-9.998308411E0,5.466632080E-1,1.012664359E1
1.125315583E1,-1.576521606E0,-1.015338593E1,6.474037170E-1,1.029542606E1
1.126315883E1,-1.575473785E0,-1.022299118E1,7.252418518E-1,1.036907142E1
1.127316183E1,-1.518891449E0,-1.019814285E1,8.189469910E-1,1.034310510E1
1.128316483E1,-1.390907593E0,-1.013467484E1,8.605604553E-1,1.026580841E1
1.129316783E1,-1.231938171E0,-1.002944366E1,8.836125183E-1,1.014338124E1
1.130317083E1,-1.065783691E0,-9.946516113E0,8.864566040E-1,1.004265318E1
1.131317383E1,-9.238787842E-1,-9.925260315E0,8.783734131E-1,1.000679190E1
1.132317683E1,-8.195457458E-1,-1.002480331E1,8.369096375E-1,1.009300522E1
1.133317983E1,-7.298822021E-1,-1.015877472E1,8.117619324E-1,1.021725938E1
1.134318283E1,-6.623725891E-1,-1.031969009E1,7.746391296E-1,1.036989908E1
1.135318483E1,-6.120771790E-1,-1.049841843E1,6.673123169E-1,1.053739691E1
1.136318783E1,-5.653742981E-1,-1.072804092E1,3.838018799E-1,1.074978205E1
1.137319083E1,-6.098318481E-1,-1.090871521E1,4.805007935E-2,1.092585334E1
1.138319383E1,-6.797364807E-1,-1.088521408E1,-2.439926147E-1,1.090914569E1
1.139319683E1,-6.286926270E-1,-1.063134201E1,-5.089416504E-1,1.066206870E1
1.140319983E1,-5.251080322E-1,-1.029648834E1,-6.963519287E-1,1.033335941E1
1.141320283E1,-3.923341370E-1,-1.001222946E1,-8.445437622E-1,1.005544226E1
1.142320583E1,-2.791694641E-1,-9.926158447E0,-9.851014709E-1,9.978826685E0
1.143320883E1,-2.139051819E-1,-9.937385101E0,-1.142574005E0,1.000514135E1
1.144321183E1,-2.306703186E-1,-9.825867004E0,-1.349593506E0,9.920800059E0
1.145321483E1,-2.411485291E-1,-9.431137848E0,-1.623523865E0,9.572896294E0
1.146321783E1,-3.855981445E-1,-8.807983704E0,-1.773511963E0,8.993031054E0
1.147322083E1,-6.007008362E-1,-7.931855621E0,-1.589694214E0,8.111861857E0
1.148322383E1,-7.286846924E-1,-6.906936951E0,-1.459165649E0,7.096895364E0
1.149322683E1,-6.524931335E-1,-6.170169067E0,-1.303639069E0,6.340047983E0
1.150322883E1,-6.744973755E-1,-5.793252869E0,-7.453001404E-1,5.879812736E0
1.151323183E1,-8.285270691E-1,-5.658982086E0,-2.808160400E-1,5.726202320E0
1.152323483E1,-1.110839996E0,-5.680088196E0,6.917115784E-1,5.828879165E0
1.153323783E1,-1.528022461E0,-5.749244385E0,2.121687927E0,6.315870747E0
1.154324083E1,-1.618883514E0,-5.594316559E0,2.520308990E0,6.345795380E0
1.155324383E1,-1.282233582E0,-5.396877136E0,1.532213745E0,5.754831426E0
1.156324683E1,-3.710783386E-1,-5.386548615E0,-4.086502075E-1,5.414757622E0
1.157324983E1,7.572752380E-1,-5.811963959E0,-2.350711670E0,6.314921710E0
1.158325283E1,1.460961914E0,-6.801855469E0,-3.231929169E0,7.671050364E0
1.159325583E1,1.584155731E0,-8.012388153E0,-3.079695740E0,8.728828051E0
1.160325883E1,1.358574829E0,-8.982969818E0,-2.463876343E0,9.413296923E0
1.161326183E1,8.695417786E-1,-9.562714233E0,-1.224753113E0,9.679960052E0
1.162326483E1,2.359094238E-1,-9.977202301E0,-1.308279419E-1,9.980848409E0
1.163326783E1,-2.579136658E-1,-1.044243484E1,7.394622803E-2,1.044588115E1
1.164326983E1,-6.441105652E-1,-1.093940140E1,-5.689668274E-1,1.097310825E1
1.165327283E1,-1.187929688E0,-1.137245087E1,-1.524429932E0,1.153549749E1
1.166327583E1,-1.534159698E0,-1.174008636E1,-2.052382050E0,1.201646978E1
1.167327883E1,-1.272653503E0,-1.190249863E1,-1.872605896E0,1.211593056E1
1.168328183E1,-3.923341370E-1,-1.193662766E1,-1.313668213E0,1.201510425E1
1.169328483E1,8.324189758E-1,-1.204395447E1,-1.216520233E0,1.213382388E1
1.170328783E1,2.243833923E0,-1.284508850E1,-2.008373566E0,1.319335642E1
1.171329083E1,3.250340881E0,-1.443044174E1,-1.808539124E0,1.490211993E1
1.172329383E1,3.078498230E0,-1.650512741E1,-6.497987366E-1,1.680233974E1
1.173329683E1,2.006128235E0,-1.899924088E1,4.760101318E-2,1.910492005E1
1.174329983E1,7.716453552E-1,-2.159723831E1,2.180964661E-1,2.161211941E1
1.175330283E1,-1.675016785E-1,-2.411410446E1,2.580633545E-1,2.411606700E1
1.176330583E1,-7.173083496E-1,-2.602937164E1,4.427792358E-1,2.604301774E1
1.177330883E1,-1.124162292E0,-2.619777145E1,8.982820129E-1,2.623726130E1
1.178331083E1,-1.804796906E0,-2.352328308E1,1.212478638E0,2.362355272E1
1.179331383E1,-2.422113190E0,-2.023297531E1,1.420995026E0,2.042692216E1
1.180331683E1,-2.283651123E0,-1.858011246E1,1.503772888E0,1.878022828E1
1.181331983E1,-1.718276825E0,-1.758034149E1,1.685794373E0,1.774437333E1
1.182332283E1,-1.253942413E0,-1.687381073E1,1.606159973E0,1.699639991E1
1.183332583E1,-1.204994202E0,-1.651261185E1,1.099763031E0,1.659300575E1
1.184332883E1,-1.402134247E0,-1.659239594E1,3.309617615E-1,1.665482269E1
1.185333183E1,-1.751507721E0,-1.684701645E1,-9.023236084E-1,1.696183747E1
1.186333483E1,-1.982776794E0,-1.651051620E1,-2.668201447E0,1.684184812E1
1.187333783E1,-2.019600220E0,-1.534219574E1,-5.279371490E0,1.635033695E1
1.188334083E1,-1.291813660E0,-1.349443817E1,-9.349108429E0,1.646737601E1
1.189334383E1,-8.143066406E-2,-1.063373703E1,-1.324071579E1,1.698233049E1
1.190334683E1,3.805087280E-1,-7.921227722E0,-1.308234512E1,1.529831329E1
1.191334983E1,1.781295776E-2,-5.595065002E0,-9.923314362E0,1.139198129E1
1.192335183E1,-4.833448792E-1,-3.374732208E0,-5.910159760E0,6.822933983E0
1.193335483E1,-8.303233337E-1,-1.357227631E0,-2.707270203E0,3.140193566E0
1.194335783E1,-6.171665955E-1,5.703140259E-2,-8.575666809E-1,1.058096309E0
1.195336096E1,-2.082170105E-1,8.779243469E-1,-1.830693054E-1,9.206627249E-1
1.196336396E1,5.831872559E-1,1.338067474E0,3.279679871E-1,1.496026384E0
1.197336696E1,1.386117554E0,1.524130554E0,1.045875092E0,2.310443794E0
1.198336996E1,1.650318146E0,1.510658569E0,1.421144714E0,2.650526664E0
1.199337296E1,1.718875580E0,1.398541718E0,1.047821045E0,2.451199938E0
1.200337596E1,1.624871063E0,1.230141907E0,8.806187439E-1,2.220122622E0
1.201337896E1,1.428778839E0,1.105151825E0,8.381071472E-1,1.991279267E0
1.202338196E1,1.251397705E0,1.028211823E0,8.180488586E-1,1.814502605E0
1.203338496E1,1.178798676E0,9.833052063E-1,7.999365234E-1,1.730997946E0
1.204338796E1,1.109792175E0,9.401948547E-1,7.717950439E-1,1.646594251E0
1.205339096E1,1.110241241E0,8.951385498E-1,8.134085083E-1,1.641810598E0
1.206339296E1,1.125509491E0,8.077203369E-1,9.110055542E-1,1.658045499E0
1.207339596E1,1.077459412E0,7.280859375E-1,9.397457886E-1,1.604415801E0
1.208339896E1,9.056167603E-1,6.225553894E-1,8.719367981E-1,1.402850922E0
1.209340196E1,6.722520447E-1,4.951702881E-1,8.352630615E-1,1.181008386E0
1.210340496E1,4.787045288E-1,4.098477173E-1,8.854087830E-1,1.086775915E0
1.211340796E1,3.351530457E-1,3.293151855E-1,9.358538818E-1,1.047186012E0
1.212341096E1,2.281256104E-1,2.372566223E-1,9.533674622E-1,1.008583917E0
1.213341396E1,9.580078125E-2,2.016307068E-1,1.020877075E0,1.044998916E0
1.214341696E1,-5.388793945E-3,1.745370483E-1,1.075962524E0,1.090040171E0
1.215341996E1,-5.059478760E-2,1.618135071E-1,9.370513916E-1,9.522650650E-1
1.216342296E1,-7.858657837E-2,1.654060364E-1,3.879931641E-1,4.290381131E-1
1.217342596E1,-1.163081360E-1,1.417552185E-1,-4.373904419E-1,4.742705168E-1
1.218342896E1,-2.365081787E-2,-2.306703186E-1,-6.490502930E-1,6.892274225E-1
1.219343096E1,1.161584473E-1,-5.022056580E-1,-7.598199463E-1,9.181664656E-1
1.220343396E1,2.297721863E-1,-5.218148804E-1,-2.089654541E-1,6.072500210E-1
1.221343696E1,6.610253906E-1,-1.530567169E0,-4.056564331E-1,1.715851849E0
1.222343996E1,2.098486176E0,-1.023436752E1,-3.940854950E0,1.116585243E1
1.223344296E1,2.815644836E0,-3.789414871E1,-9.636660461E0,3.920152532E1
1.224344596E1,1.710942078E0,-6.600314575E1,-8.144413605E0,6.652573972E1
1.225344896E1,-8.249345398E-1,-7.972017105E1,-9.150471497E-1,7.972969021E1
1.226345196E1,-2.382745056E0,-6.874289841E1,4.603227539E0,6.893803928E1
1.227345496E1,-1.666634216E0,-4.003065582E1,3.071462860E0,4.018289386E1
1.228345796E1,-2.387684784E0,-1.989722351E1,2.211351471E0,2.016161247E1
1.229346096E1,-3.730841675E0,-1.259929962E1,4.666246490E0,1.394400900E1
1.230346396E1,-3.396886139E0,-8.256979523E0,5.370232544E0,1.041901837E1
1.231346696E1,-2.468666382E0,-6.005810852E0,4.353097687E0,7.817514769E0
1.232346996E1,-1.681752777E0,-4.827161865E0,3.261118469E0,6.063388306E0
1.233347296E1,-1.323847046E0,-4.053570557E0,1.941163330E0,4.685308990E0
1.234347496E1,-1.390458527E0,-3.197800140E0,2.564167786E-1,3.496433929E0
1.235347796E1,-1.256936188E0,-2.415826263E0,-8.514294434E-1,2.853250289E0
1.236348096E1,-7.291337585E-1,-2.366878052E0,-1.170565796E0,2.739337882E0
1.237348396E1,4.821473694E-1,-3.261866913E0,-9.918374634E-1,3.443251864E0
1.238348696E1,1.785337372E0,-4.726571045E0,-5.526507568E-1,5.082649529E0
1.239348996E1,2.284100189E0,-6.095474396E0,-3.686833191E-1,6.519804382E0
1.240349296E1,1.991009674E0,-6.771468658E0,-2.686912537E-1,7.063221808E0
1.241349596E1,1.560055847E0,-6.011499023E0,1.181044006E-1,6.211750430E0
1.242349896E1,1.454076233E0,-4.677323456E0,2.212399292E-1,4.903125484E0
1.243350196E1,1.441352692E0,-3.809128876E0,7.185058594E-2,4.073342961E0
1.244350496E1,1.266965332E0,-3.177592163E0,-2.875520325E-1,3.432925761E0
1.245350796E1,6.216572571E-1,-3.019820251E0,-7.328759766E-1,3.169050219E0
1.246351096E1,-1.709445190E-1,-4.091441803E0,-9.792636108E-1,4.210472096E0
1.247351396E1,-8.915460205E-1,-6.025120697E0,-1.057251434E0,6.181805102E0
1.248351596E1,-1.285676422E0,-7.900121613E0,-1.071322174E0,8.075432902E0
1.249351896E1,-1.458566895E0,-9.858648834E0,-9.584568787E-1,1.001194356E1
1.250352196E1,-1.542093201E0,-1.170865173E1,-5.541476440E-1,1.182276010E1
1.251352496E1,-1.636397095E0,-1.341016342E1,-5.328918457E-2,1.350974160E1
1.252352796E1,-1.855541382E0,-1.526016632E1,3.225791931E-1,1.537594769E1
1.253353096E1,-2.252066803E0,-1.697559906E1,6.240522766E-1,1.713569986E1
1.254353396E1,-2.792892151E0,-1.795935333E1,7.450007629E-1,1.819048226E1
1.255353696E1,-3.344195709E0,-1.709744568E1,5.776487732E-1,1.743100605E1
1.256353996E1,-3.203338623E0,-1.402313873E1,1.204994202E-1,1.438486421E1
1.257354296E1,-2.288441162E0,-1.094868210E1,-5.230123901E-1,1.119750618E1
1.258354596E1,-1.386865997E0,-8.870703278E0,-9.699829102E-1,9.030705442E0
1.259354896E1,-5.580395508E-1,-7.599097595E0,-1.009201355E0,7.686103029E0
1.260355196E1,2.258802795E-1,-7.143145752E0,-6.551875305E-1,7.176686132E0
1.261355496E1,8.665480042E-1,-7.285200348E0,6.361770630E-2,7.336831521E0
1.262355696E1,1.107247467E0,-7.708220673E0,8.755293274E-1,7.836403161E0
1.263355996E1,1.026714935E0,-8.126151581E0,1.552421722E0,8.336575812E0
1.264356296E1,8.696914673E-1,-8.471333771E0,1.910477142E0,8.727530121E0
1.265356596E1,8.399034119E-1,-8.730744324E0,1.902393951E0,8.974989523E0
1.266356896E1,9.621990967E-1,-8.916508026E0,1.724414063E0,9.132554207E0
1.267357196E1,1.040037231E0,-9.069789276E0,1.614392853E0,9.270869390E0
1.268357496E1,9.855505371E-1,-9.287586365E0,1.578766937E0,9.472226527E0
1.269357796E1,8.349636841E-1,-9.612859955E0,1.586850128E0,9.778667302E0
1.270358096E1,5.382806396E-1,-9.856553192E0,1.554966431E0,9.992962898E0
1.271358396E1,8.831634521E-3,-9.822873230E0,1.454974365E0,9.930048685E0
1.272358696E1,-6.448590088E-1,-9.665251007E0,1.336121521E0,9.778452888E0
1.273358996E1,-1.303639069E0,-9.588311005E0,1.217418365E0,9.752809350E0
1.274359296E1,-1.833986206E0,-9.644893341E0,1.132095795E0,9.882768532E0
1.275359596E1,-2.087109833E0,-9.613458710E0,9.874964905E-1,9.886848089E0
1.276359796E1,-2.167492676E0,-9.517957306E0,7.831713867E-1,9.793002257E0
1.277360096E1,-2.186952209E0,-9.345515900E0,5.028044128E-1,9.611151839E0
1.278360396E1,-2.173031158E0,-9.205107880E0,2.673440552E-1,9.461899827E0
1.279360696E1,-2.179617462E0,-9.134903870E0,1.049317932E-1,9.391922682E0
1.280360996E1,-2.013313293E0,-9.089248810E0,1.152603149E-2,9.309565360E0
1.281361296E1,-1.562899933E0,-9.209299164E0,6.825805664E-2,9.341226175E0
1.282361596E1,-1.011147308E0,-9.325457611E0,2.927911377E-1,9.384684608E0
1.283361896E1,-5.902226257E-1,-9.484726410E0,6.409671021E-1,9.524664647E0
1.284362196E1,-3.168910217E-1,-9.770182800E0,9.479786682E-1,9.821178922E0
1.285362496E1,-2.002835083E-1,-1.001627106E1,1.182241516E0,1.008778937E1
1.286362796E1,-2.107617188E-1,-1.008393036E1,1.382225647E0,1.018040371E1
1.287363096E1,-2.580633545E-1,-9.991273041E0,1.520238647E0,1.010956276E1
1.288363396E1,-3.156935120E-1,-9.826914825E0,1.618284760E0,9.964274331E0
1.289363696E1,-4.212240601E-1,-9.709259491E0,1.696721649E0,9.865394768E0
1.290363896E1,-5.598358154E-1,-9.774823151E0,1.758243713E0,9.947462225E0
1.291364196E1,-6.515950012E-1,-1.006477020E1,1.779798889E0,1.024167268E1
1.292364496E1,-7.628137207E-1,-1.050904633E1,1.748963013E0,1.068086191E1
1.293364796E1,-9.499246216E-1,-1.085916824E1,1.625170441E0,1.102111930E1
1.294365096E1,-1.182241516E0,-1.080812439E1,1.436562653E0,1.096708530E1
1.295365396E1,-1.243015137E0,-1.044527893E1,1.226100311E0,1.059019644E1
1.296365696E1,-1.146166534E0,-1.009171417E1,1.014889526E0,1.020717363E1
1.297365996E1,-1.018931122E0,-9.886790314E0,8.217910767E-1,9.973072942E0
1.298366296E1,-9.397457886E-1,-9.871072998E0,7.427554321E-1,9.943484797E0
1.299366596E1,-9.220825195E-1,-9.910141754E0,8.249345398E-1,9.987074785E0
1.300366896E1,-9.789642334E-1,-9.913883972E0,1.005459137E0,1.001271264E1
1.301367196E1,-1.112037506E0,-9.807006226E0,1.135239258E0,9.934926607E0
1.302367496E1,-1.286724243E0,-9.672585754E0,1.217867432E0,9.833502709E0
1.303367796E1,-1.399589539E0,-9.535919952E0,1.227896576E0,9.715984264E0
1.304367996E1,-1.447639618E0,-9.390721893E0,1.223854980E0,9.580142961E0
1.305368296E1,-1.431922302E0,-9.292675781E0,1.281634827E0,9.489299894E0
1.306368596E1,-1.347497864E0,-9.276210022E0,1.370250549E0,9.473194257E0
1.307368896E1,-1.198407898E0,-9.301507416E0,1.516646118E0,9.500233531E0
1.308369196E1,-1.043031006E0,-9.372609558E0,1.685644684E0,9.579933278E0
1.309369496E1,-9.265731812E-1,-9.406289520E0,1.875749359E0,9.636143215E0
1.310369796E1,-8.408015442E-1,-9.473649445E0,2.007625122E0,9.720470136E0
1.311370096E1,-7.866142273E-1,-9.544003143E0,2.104324036E0,9.804842558E0
1.312370396E1,-7.656578064E-1,-9.556277618E0,2.138153687E0,9.822442414E0
1.313370696E1,-7.051835632E-1,-9.507030029E0,2.119143219E0,9.765842095E0
1.314370996E1,-6.571334839E-1,-9.421707458E0,2.027833099E0,9.659839695E0
1.315371296E1,-5.993536377E-1,-9.427844696E0,1.908531189E0,9.637736855E0
1.316371596E1,-5.325924683E-1,-9.509574738E0,1.744322662E0,9.682888411E0
1.317371896E1,-4.806504822E-1,-9.593999176E0,1.583706665E0,9.735706029E0
1.318372096E1,-4.653822327E-1,-9.664502563E0,1.446142731E0,9.783175314E0
1.319372396E1,-5.054988098E-1,-9.733658752E0,1.305285645E0,9.833789319E0
1.320372696E1,-5.846841431E-1,-9.779313812E0,1.227597198E0,9.873389948E0
1.321372996E1,-7.376660156E-1,-9.810598755E0,1.168470154E0,9.907437690E0
1.322373296E1,-8.988807678E-1,-9.833950195E0,1.112486572E0,9.937413620E0
1.323373596E1,-1.046024780E0,-9.815239105E0,1.072369995E0,9.928900440E0
1.324373896E1,-1.165476379E0,-9.822873230E0,1.024469604E0,9.944682582E0
1.325374196E1,-1.228345642E0,-9.823022919E0,9.722282410E-1,9.947152358E0
1.326374496E1,-1.245859222E0,-9.810000000E0,9.156459045E-1,9.931096245E0
1.327374796E1,-1.254541168E0,-9.768386536E0,9.151968384E-1,9.891048190E0
1.328375096E1,-1.217418365E0,-9.735155640E0,1.006207581E0,9.862444753E0
1.329375396E1,-1.195264435E0,-9.670490112E0,1.155297546E0,9.812326355E0
1.330375696E1,-1.163081360E0,-9.620045013E0,1.333127747E0,9.781372802E0
1.331375896E1,-1.129850464E0,-9.577832794E0,1.520388336E0,9.763351054E0
1.332376196E1,-1.096469879E0,-9.592352600E0,1.634600830E0,9.792210908E0
1.333376496E1,-1.060245209E0,-9.564061432E0,1.749861145E0,9.780460368E0
1.334376796E1,-1.023721161E0,-9.527387695E0,1.810784454E0,9.751823504E0
1.335377096E1,-9.735754395E-1,-9.497449951E0,1.862876129E0,9.727266429E0
1.336377396E1,-9.223818970E-1,-9.511670380E0,1.860481110E0,9.735710130E0
1.337377696E1,-9.250762939E-1,-9.570647736E0,1.852697296E0,9.792116804E0
1.338377996E1,-9.294172668E-1,-9.618248749E0,1.837129669E0,9.836135973E0
1.339378296E1,-9.587562561E-1,-9.640402679E0,1.798809357E0,9.853542129E0
1.340378596E1,-1.042731628E0,-9.628277893E0,1.712438965E0,9.834809182E0
1.341378896E1,-1.126856689E0,-9.622739410E0,1.611548767E0,9.821609297E0
1.342379196E1,-1.178199921E0,-9.641001434E0,1.519190826E0,9.830819115E0
1.343379496E1,-1.226399689E0,-9.679920502E0,1.411864014E0,9.858918658E0
1.344379796E1,-1.253792725E0,-9.745484161E0,1.313817902E0,9.913252504E0
1.345379996E1,-1.259181519E0,-9.757309570E0,1.238524475E0,9.915874698E0
1.346380296E1,-1.249302063E0,-9.730664978E0,1.170715485E0,9.880140247E0
1.347380596E1,-1.212179260E0,-9.680219879E0,1.125509491E0,9.820529878E0
1.348380896E1,-1.134640503E0,-9.601034546E0,1.138682098E0,9.734673613E0
1.349381196E1,-1.110540619E0,-9.586215363E0,1.207688599E0,9.725602151E0
1.350381496E1,-1.092577972E0,-9.579179993E0,1.305435333E0,9.729263968E0
1.351381796E1,-1.080902252E0,-9.577683105E0,1.440903625E0,9.745592163E0
1.352382096E1,-1.046024780E0,-9.601184235E0,1.551224213E0,9.781779138E0
1.353382396E1,-1.056203613E0,-9.613309021E0,1.657503204E0,9.812165575E0
1.354382696E1,-1.066083069E0,-9.628277893E0,1.701212311E0,9.835364336E0
1.355382996E1,-1.037941589E0,-9.611961823E0,1.716181183E0,9.818982161E0
1.356383296E1,-1.035396881E0,-9.604178009E0,1.720222778E0,9.811801483E0
1.357383596E1,-1.051263885E0,-9.581874390E0,1.686093750E0,9.785723515E0
1.358383896E1,-1.051114197E0,-9.572893066E0,1.625918884E0,9.766715668E0
1.359384096E1,-1.043031006E0,-9.571994934E0,1.559756470E0,9.754170438E0
1.360384396E1,-1.015787659E0,-9.571545868E0,1.504820709E0,9.742217419E0
1.361384696E1,-1.027313690E0,-9.618548126E0,1.455722809E0,9.782176157E0
1.362384996E1,-1.011446686E0,-9.686207428E0,1.412163391E0,9.840723763E0
1.363385296E1,-1.018482056E0,-9.745184784E0,1.384021912E0,9.895526708E0
1.364385596E1,-1.053060150E0,-9.755064240E0,1.375040588E0,9.907620835E0
1.365385896E1,-1.045126648E0,-9.745334473E0,1.342109070E0,9.892678629E0
1.366386196E1,-1.015637970E0,-9.746382294E0,1.294358368E0,9.884272957E0
1.367386496E1,-9.729766846E-1,-9.673184509E0,1.279838562E0,9.805874205E0
1.368386796E1,-9.613009644E-1,-9.611961823E0,1.279988251E0,9.744346030E0
1.369387096E1,-9.792636108E-1,-9.624385986E0,1.293310547E0,9.760144210E0
1.370387396E1,-9.987231445E-1,-9.679172058E0,1.358874207E0,9.824986451E0
1.371387696E1,-1.026565247E0,-9.684710541E0,1.413809967E0,9.841052438E0
1.372387996E1,-1.051712952E0,-9.641899567E0,1.467398529E0,9.809464095E0
1.373388196E1,-1.024020538E0,-9.576635284E0,1.499880981E0,9.747317805E0
1.374388496E1,-9.741741943E-1,-9.534872131E0,1.509610748E0,9.702665950E0
1.375388796E1,-9.526190186E-1,-9.537416840E0,1.490001526E0,9.699995233E0
1.376389096E1,-9.316625977E-1,-9.544302521E0,1.476978607E0,9.702740418E0
1.377389396E1,-9.383985901E-1,-9.538913727E0,1.477427673E0,9.698157533E0
1.378389696E1,-9.481283569E-1,-9.580527191E0,1.469643860E0,9.738855257E0
1.379389996E1,-9.840536499E-1,-9.630373535E0,1.463656311E0,9.790543693E0
1.380390296E1,-1.026714935E0,-9.652078400E0,1.458417206E0,9.815484794E0
1.381390596E1,-1.063238983E0,-9.643546143E0,1.447040863E0,9.809301025E0
1.382390896E1,-1.056203613E0,-9.621691589E0,1.411564636E0,9.781872512E0
1.383391196E1,-1.089284821E0,-9.609866180E0,1.388662262E0,9.770591195E0
1.384391496E1,-1.099164276E0,-9.607920227E0,1.374292145E0,9.767751640E0
1.385391796E1,-1.103654938E0,-9.624835052E0,1.372944946E0,9.784706528E0
1.386391996E1,-1.099613342E0,-9.622440033E0,1.354383545E0,9.779307566E0
1.387392296E1,-1.069974976E0,-9.598489838E0,1.362017670E0,9.753509407E0
1.388392596E1,-1.037342834E0,-9.593101044E0,1.356628876E0,9.743926811E0
1.389392896E1,-1.049317932E0,-9.610914001E0,1.372944946E0,9.765025033E0
1.390393196E1,-1.043031006E0,-9.653724976E0,1.383273468E0,9.807943978E0
1.391393496E1,-1.034648438E0,-9.653724976E0,1.379680939E0,9.806549994E0
1.392393796E1,-1.027313690E0,-9.673633575E0,1.370400238E0,9.824080455E0
1.393394096E1,-1.032852173E0,-9.677375793E0,1.341210938E0,9.824318431E0
1.394394396E1,-1.036145325E0,-9.653575287E0,1.352587280E0,9.802785589E0
1.395394725E1,-1.043779449E0,-9.643845520E0,1.334774323E0,9.791570581E0
1.396395025E1,-1.055904236E0,-9.637259216E0,1.338666229E0,9.786916074E0
1.397395325E1,-1.050814819E0,-9.626331940E0,1.316512299E0,9.772598581E0
1.398395625E1,-1.053658905E0,-9.599837036E0,1.292711792E0,9.743622118E0
1.399395925E1,-1.043629761E0,-9.590406647E0,1.295106812E0,9.733568944E0
1.400396125E1,-1.022074585E0,-9.601483612E0,1.298100586E0,9.742596632E0
1.401396425E1,-1.011296997E0,-9.620194702E0,1.314865723E0,9.762158552E0
1.402396725E1,-1.014141083E0,-9.636361084E0,1.323547668E0,9.779555997E0
1.403397025E1,-1.001716919E0,-9.668394470E0,1.336271210E0,9.811570168E0
1.404397325E1,-9.978250122E-1,-9.663305054E0,1.326242065E0,9.804796649E0
1.405397625E1,-9.969268799E-1,-9.663903809E0,1.290167084E0,9.800481168E0
1.406397925E1,-1.020128632E0,-9.657766571E0,1.256187744E0,9.792401402E0
1.407398225E1,-1.012943573E0,-9.638756104E0,1.211730194E0,9.767290513E0
1.408398525E1,-1.018781433E0,-9.666448517E0,1.182241516E0,9.791620782E0
1.409398825E1,-1.019080811E0,-9.643396454E0,1.158740387E0,9.766079057E0
1.410399125E1,-1.032103729E0,-9.651779022E0,1.147962799E0,9.774451135E0
1.411399425E1,-1.042282562E0,-9.673184509E0,1.130898285E0,9.794681333E0
1.412399725E1,-1.024170227E0,-9.685009918E0,1.110839996E0,9.802158296E0
1.413399925E1,-1.024170227E0,-9.697434082E0,1.128054199E0,9.816397440E0
1.414400225E1,-1.017583923E0,-9.682914276E0,1.148262177E0,9.803714191E0
1.415400525E1,-1.007704468E0,-9.690698090E0,1.142424316E0,9.809700866E0
1.416400825E1,-1.024918671E0,-9.707163849E0,1.155596924E0,9.829287488E0
1.417401125E1,-1.030906219E0,-9.704918518E0,1.177152100E0,9.830254226E0
1.418401425E1,-1.067879333E0,-9.722282410E0,1.178199921E0,9.851461647E0
1.419401725E1,-1.101110229E0,-9.748028870E0,1.211281128E0,9.884518833E0
1.420402025E1,-1.119671631E0,-9.753717041E0,1.230740662E0,9.894613851E0
1.421402325E1,-1.114582214E0,-9.694290619E0,1.255289612E0,9.838562706E0
1.422402625E1,-1.105002136E0,-9.660910034E0,1.242266693E0,9.802930120E0
1.423402925E1,-1.095721436E0,-9.580676880E0,1.221609650E0,9.720200876E0
1.424403225E1,-1.044527893E0,-9.528734894E0,1.201251984E0,9.660788452E0
1.425403525E1,-9.994715881E-1,-9.559720459E0,1.197509766E0,9.686135883E0
1.426403825E1,-9.857002258E-1,-9.592502289E0,1.194815369E0,9.716753000E0
1.427404025E1,-9.107061768E-1,-9.570947113E0,1.181642761E0,9.686521254E0
1.428404325E1,-8.903485107E-1,-9.572893066E0,1.177900543E0,9.686095799E0
1.429404625E1,-8.707392883E-1,-9.628577271E0,1.178648987E0,9.739450734E0
1.430404925E1,-8.789721680E-1,-9.695338440E0,1.195713501E0,9.808257252E0
1.431405225E1,-8.589138794E-1,-9.732461243E0,1.191821594E0,9.842711700E0
1.432405525E1,-8.349636841E-1,-9.705816650E0,1.199455719E0,9.815229759E0
1.433405825E1,-8.247848511E-1,-9.629774780E0,1.196461945E0,9.738806578E0
1.434406125E1,-8.229885864E-1,-9.591903534E0,1.150806885E0,9.695683581E0
1.435406425E1,-8.419990540E-1,-9.588909760E0,1.106948090E0,9.689245938E0
1.436406725E1,-8.852590942E-1,-9.605974274E0,1.083596649E0,9.707348099E0
1.437407025E1,-9.437873840E-1,-9.653724976E0,1.096619568E0,9.761542655E0
1.438407325E1,-9.601034546E-1,-9.699679413E0,1.099463654E0,9.808893907E0
1.439407625E1,-9.334588623E-1,-9.720785522E0,1.108145599E0,9.828173955E0
1.440407825E1,-9.268725586E-1,-9.748328247E0,1.108295288E0,9.854811759E0
1.441408125E1,-9.455836487E-1,-9.753717041E0,1.094523926E0,9.860380681E0
1.442408425E1,-9.541159058E-1,-9.767338715E0,1.108295288E0,9.876211884E0
1.443408725E1,-1.000070343E0,-9.746382294E0,1.113085327E0,9.860581497E0
1.444409025E1,-1.033750305E0,-9.725874939E0,1.123862915E0,9.845016550E0
1.445409325E1,-1.038839722E0,-9.714648285E0,1.115480347E0,9.833507801E0
1.446409625E1,-1.059347076E0,-9.679471436E0,1.161734161E0,9.806324988E0
1.447409925E1,-1.070274353E0,-9.652228088E0,1.222507782E0,9.788029400E0
1.448410225E1,-1.044378204E0,-9.689949646E0,1.235979767E0,9.824128254E0
1.449410525E1,-9.984237671E-1,-9.706864471E0,1.269510040E0,9.840311155E0
1.450410825E1,-9.948312378E-1,-9.730215912E0,1.275647278E0,9.863775487E0
1.451411125E1,-9.541159058E-1,-9.753267975E0,1.289867706E0,9.884347831E0
1.452411425E1,-9.238787842E-1,-9.736802216E0,1.295555878E0,9.865968499E0
1.453411725E1,-9.029223633E-1,-9.711953888E0,1.281185760E0,9.837619329E0
1.454411925E1,-8.824150085E-1,-9.678273926E0,1.245559845E0,9.797911092E0
1.455412225E1,-8.774752808E-1,-9.671687622E0,1.222956848E0,9.788111553E0
1.456412525E1,-8.666976929E-1,-9.679471436E0,1.167422333E0,9.788064521E0
1.457412825E1,-8.610095215E-1,-9.688303070E0,1.155147858E0,9.794841517E0
1.458413125E1,-8.535250854E-1,-9.697583771E0,1.166374512E0,9.804696097E0
1.459413425E1,-8.831634521E-1,-9.683363342E0,1.165177002E0,9.793117009E0
1.460413725E1,-9.148974609E-1,-9.656718750E0,1.171463928E0,9.770444315E0
1.461414025E1,-9.596543884E-1,-9.609117737E0,1.180295563E0,9.728780902E0
1.462414325E1,-1.008752289E0,-9.585616608E0,1.199455719E0,9.712894571E0
1.463414625E1,-1.048270111E0,-9.582173767E0,1.211131439E0,9.715130657E0
1.464414925E1,-1.033151550E0,-9.572144623E0,1.188977509E0,9.700877400E0
1.465415225E1,-1.024768982E0,-9.574539642E0,1.185834045E0,9.701966976E0
1.466415525E1,-9.901908875E-1,-9.581874390E0,1.177002411E0,9.704541694E0
1.467415725E1,-9.602531433E-1,-9.587861938E0,1.174457703E0,9.707138278E0
1.468416025E1,-9.416917419E-1,-9.625733185E0,1.175206146E0,9.742824650E0
1.469416325E1,-9.050180054E-1,-9.647288361E0,1.176403656E0,9.760796887E0
1.470416625E1,-8.896000671E-1,-9.667346649E0,1.158441010E0,9.777063214E0
1.471416925E1,-8.634045410E-1,-9.695039063E0,1.121617584E0,9.797819953E0
1.472417225E1,-8.514294434E-1,-9.729916534E0,1.092428284E0,9.828001191E0
1.473417525E1,-8.291258240E-1,-9.758806458E0,1.074914703E0,9.852775991E0
1.474417825E1,-8.364605713E-1,-9.761500854E0,1.053060150E0,9.853704933E0
1.475418125E1,-8.421487427E-1,-9.709708557E0,1.029409332E0,9.800374398E0
1.476418425E1,-8.505313110E-1,-9.717492371E0,1.006357269E0,9.806417105E0
1.477418725E1,-8.461903381E-1,-9.737850037E0,9.812095642E-1,9.823672105E0
1.478419025E1,-8.400531006E-1,-9.744735718E0,9.418414307E-1,9.826119717E0
1.479419325E1,-7.918533325E-1,-9.751022644E0,9.207353210E-1,9.826353741E0
1.480419525E1,-7.476951599E-1,-9.741891632E0,9.250762939E-1,9.814237962E0
1.481419825E1,-7.021897888E-1,-9.723330231E0,9.310638428E-1,9.793012874E0
1.482420125E1,-6.632707214E-1,-9.715546417E0,9.551637268E-1,9.784891823E0
1.483420425E1,-6.523434448E-1,-9.690847778E0,1.015637970E0,9.765736179E0
1.484420725E1,-6.509962463E-1,-9.635762329E0,1.056802368E0,9.715376628E0
1.485421025E1,-6.936575317E-1,-9.612710266E0,1.099912720E0,9.700266358E0
1.486421325E1,-7.367678833E-1,-9.579030304E0,1.156644745E0,9.676697554E0
1.487421625E1,-7.691006470E-1,-9.570498047E0,1.210682373E0,9.677380869E0
1.488421925E1,-8.065228271E-1,-9.569450226E0,1.240021362E0,9.683104341E0
1.489422225E1,-8.313711548E-1,-9.583221588E0,1.271755371E0,9.702920989E0
1.490422525E1,-8.704399109E-1,-9.603579254E0,1.277892609E0,9.727250878E0
1.491422825E1,-8.988807678E-1,-9.609417114E0,1.287772064E0,9.736900985E0
1.492423125E1,-9.099577332E-1,-9.661359100E0,1.278042297E0,9.787914735E0
1.493423425E1,-9.364526367E-1,-9.667795715E0,1.257385254E0,9.794091852E0
1.494423625E1,-9.529183960E-1,-9.605375519E0,1.233135681E0,9.730977132E0
1.495423908E1,-9.671388245E-1,-9.601633301E0,1.166075134E0,9.720414125E0
1.496424208E1,-9.654922485E-1,-9.601782990E0,1.103056183E0,9.713039936E0
1.497424508E1,-9.289682007E-1,-9.649384003E0,1.069525909E0,9.752819040E0
1.498424808E1,-8.921447754E-1,-9.680519257E0,1.044677582E0,9.777511270E0
1.499425108E1,-9.056167603E-1,-9.685458984E0,1.042731628E0,9.783432256E0
1.500425408E1,-8.848100281E-1,-9.696386261E0,1.030008087E0,9.791001581E0
1.501425708E1,-8.761280823E-1,-9.688752136E0,1.027463379E0,9.782392313E0
1.502426008E1,-8.334667969E-1,-9.750723267E0,1.013242950E0,9.838594026E0
1.503426308E1,-7.970924377E-1,-9.822424164E0,1.012195129E0,9.906559029E0
1.504426608E1,-7.632627869E-1,-9.851912842E0,9.984237671E-1,9.931747416E0
1.505426908E1,-7.250921631E-1,-9.821226654E0,1.015937347E0,9.900221226E0
1.506427208E1,-7.315287781E-1,-9.840985565E0,1.023870850E0,9.921110964E0
1.507427408E1,-7.873626709E-1,-9.834399261E0,1.021775208E0,9.918637678E0
1.508427708E1,-8.258326721E-1,-9.783505096E0,1.030457153E0,9.872224345E0
1.509428008E1,-8.152047729E-1,-9.762249298E0,1.016685791E0,9.848843596E0
1.510428308E1,-7.803273010E-1,-9.776320038E0,1.030606842E0,9.861414434E0
1.511428608E1,-7.545808411E-1,-9.751471710E0,1.043929138E0,9.836177144E0
1.512428908E1,-7.105723572E-1,-9.727671204E0,1.031804352E0,9.808013068E0
1.513429208E1,-7.012916565E-1,-9.670490112E0,1.037043457E0,9.751187011E0
1.514429508E1,-7.191046143E-1,-9.631571045E0,1.061742096E0,9.716561558E0
1.515429808E1,-7.351213074E-1,-9.615105286E0,1.099763031E0,9.705675232E0
1.516430108E1,-7.448510742E-1,-9.597142639E0,1.131047974E0,9.692224692E0
1.517430408E1,-7.683522034E-1,-9.609866180E0,1.185983734E0,9.713210104E0
1.518430708E1,-7.952961731E-1,-9.619446259E0,1.215472412E0,9.728495028E0
1.519431008E1,-8.303233337E-1,-9.612261200E0,1.239123230E0,9.727303254E0
1.520431208E1,-8.556207275E-1,-9.643246765E0,1.257834320E0,9.762501840E0
1.521431508E1,-8.878038025E-1,-9.645492096E0,1.257984009E0,9.767611639E0
1.522431808E1,-9.090596008E-1,-9.641450500E0,1.234931946E0,9.762633560E0
1.523432108E1,-8.973838806E-1,-9.661658478E0,1.214424591E0,9.778945212E0
1.524432408E1,-8.879534912E-1,-9.678273926E0,1.191522217E0,9.791688965E0
1.525432708E1,-8.879534912E-1,-9.681118011E0,1.166374512E0,9.791472660E0
1.526433008E1,-8.777746582E-1,-9.685309296E0,1.127754822E0,9.790175455E0
1.527433308E1,-8.726852417E-1,-9.694140930E0,1.099463654E0,9.795242122E0
1.528433608E1,-8.616082764E-1,-9.673334198E0,1.061143341E0,9.769431330E0
1.529433908E1,-8.454418945E-1,-9.665550385E0,1.042731628E0,9.758325957E0
1.530434208E1,-8.342152405E-1,-9.669442291E0,1.052461395E0,9.762259179E0
1.531434508E1,-8.452922058E-1,-9.675729218E0,1.045875092E0,9.768731213E0
1.532434808E1,-8.693920898E-1,-9.668693848E0,1.077758789E0,9.767345972E0
1.533435008E1,-8.699908447E-1,-9.662706299E0,1.102756805E0,9.764263908E0
1.534435308E1,-8.681945801E-1,-9.642648010E0,1.112486572E0,9.745360376E0
1.535435608E1,-8.663983154E-1,-9.648934937E0,1.140478363E0,9.754654394E0
1.536435908E1,-8.632548523E-1,-9.669591980E0,1.161135406E0,9.777241606E0
1.537436208E1,-8.526269531E-1,-9.702373810E0,1.154399414E0,9.807939043E0
1.538436508E1,-8.126600647E-1,-9.748927002E0,1.147962799E0,9.849863586E0
1.539436808E1,-7.499404907E-1,-9.750274200E0,1.126856689E0,9.843782999E0
1.540437108E1,-7.280859375E-1,-9.758956146E0,1.111289062E0,9.848974443E0
1.541437408E1,-7.057823181E-1,-9.764045563E0,1.079555054E0,9.848865597E0
1.542437708E1,-6.954537964E-1,-9.732910309E0,1.068178711E0,9.816017768E0
1.543438008E1,-6.897656250E-1,-9.720935211E0,1.043330383E0,9.801066079E0
1.544438308E1,-7.306306458E-1,-9.706714783E0,1.035995636E0,9.789148072E0
1.545438608E1,-7.797285461E-1,-9.713750153E0,1.055455170E0,9.801984710E0
1.546438908E1,-8.201445007E-1,-9.723180542E0,1.068029022E0,9.815985068E0
1.547439108E1,-8.539741516E-1,-9.695338440E0,1.082997894E0,9.792943570E0
1.548439408E1,-8.741821289E-1,-9.694140930E0,1.093476105E0,9.794705343E0
1.549439708E1,-9.089099121E-1,-9.664053497E0,1.127006378E0,9.771908238E0
1.550440008E1,-9.154962158E-1,-9.639504547E0,1.150357819E0,9.750974533E0
1.551440308E1,-8.994795227E-1,-9.645941162E0,1.185534668E0,9.760058236E0
1.552440608E1,-8.717871094E-1,-9.660311279E0,1.217268677E0,9.775651887E0
1.553440908E1,-8.493338013E-1,-9.664801941E0,1.242117004E0,9.781238118E0
1.554441208E1,-8.391549683E-1,-9.687554626E0,1.256786499E0,9.804713561E0
1.555441508E1,-8.033793640E-1,-9.673184509E0,1.261277161E0,9.788091593E0
1.556441808E1,-7.969427490E-1,-9.659113770E0,1.262624359E0,9.773833272E0
1.557442108E1,-8.222401428E-1,-9.649982758E0,1.234033813E0,9.763251791E0
1.558442408E1,-8.337661743E-1,-9.659413147E0,1.222507782E0,9.772100780E0
1.559442708E1,-8.599617004E-1,-9.671388245E0,1.185983734E0,9.781709571E0
1.560442908E1,-8.699908447E-1,-9.674531708E0,1.165925446E0,9.783293412E0
1.561443208E1,-8.825646973E-1,-9.696685638E0,1.156495056E0,9.805208495E0
1.562443508E1,-8.878038025E-1,-9.710307312E0,1.130748596E0,9.816152814E0
1.563443808E1,-8.652008057E-1,-9.714947662E0,1.104553070E0,9.815743375E0
1.564444108E1,-8.750802612E-1,-9.707912292E0,1.083446960E0,9.807302578E0
1.565444408E1,-8.607101440E-1,-9.689500580E0,1.056802368E0,9.784890121E0
1.566444708E1,-8.418493652E-1,-9.685458984E0,1.069974976E0,9.780678532E0
1.567445008E1,-8.168513489E-1,-9.696086884E0,1.087787933E0,9.791048441E0
1.568445308E1,-8.063731384E-1,-9.710906067E0,1.113684082E0,9.807763584E0
1.569445608E1,-8.062234497E-1,-9.696535950E0,1.155896301E0,9.798413236E0
1.570445908E1,-8.201445007E-1,-9.661508789E0,1.191522217E0,9.769192099E0
1.571446208E1,-8.402027893E-1,-9.646689606E0,1.199605408E0,9.757233943E0
1.572446508E1,-8.610095215E-1,-9.689350891E0,1.225052490E0,9.804366970E0
1.573446708E1,-8.485853577E-1,-9.708061981E0,1.235530701E0,9.823090178E0
1.574447008E1,-8.116122437E-1,-9.697883148E0,1.231189728E0,9.809356765E0
1.575447308E1,-8.056246948E-1,-9.657766571E0,1.202150116E0,9.765585041E0
1.576447608E1,-8.219407654E-1,-9.650431824E0,1.174757080E0,9.756355631E0
1.577447908E1,-8.568182373E-1,-9.665550385E0,1.162931671E0,9.772891681E0
1.578448208E1,-8.767268372E-1,-9.674082642E0,1.143621826E0,9.780817746E0
1.579448508E1,-8.675958252E-1,-9.674082642E0,1.157093811E0,9.781587988E0
1.580448808E1,-8.399034119E-1,-9.686207428E0,1.143023071E0,9.789512440E0
1.581449108E1,-7.930508423E-1,-9.686207428E0,1.136137390E0,9.784802100E0
1.582449408E1,-7.767347717E-1,-9.681567078E0,1.102906494E0,9.775093898E0
1.583449708E1,-7.601193237E-1,-9.680818634E0,1.110690308E0,9.773927756E0
1.584450008E1,-7.628137207E-1,-9.690249023E0,1.115779724E0,9.784057200E0
1.585450308E1,-7.873626709E-1,-9.687554626E0,1.128652954E0,9.784810274E0
1.586450508E1,-8.111631775E-1,-9.692793732E0,1.148262177E0,9.794219829E0
1.587450808E1,-8.348139954E-1,-9.704469452E0,1.176104279E0,9.811058201E0
1.588451108E1,-8.644523621E-1,-9.715097351E0,1.203347626E0,9.827433029E0
1.589451408E1,-8.595126343E-1,-9.715696106E0,1.201401672E0,9.827353600E0
1.590451708E1,-8.620573425E-1,-9.696835327E0,1.197659454E0,9.808473194E0
1.591452008E1,-8.351133728E-1,-9.685608673E0,1.197360077E0,9.795003873E0
1.592452308E1,-8.087681580E-1,-9.676926727E0,1.182989960E0,9.782457874E0
1.593452608E1,-7.884104919E-1,-9.675130463E0,1.170416107E0,9.777505532E0
1.594452908E1,-8.096662903E-1,-9.670789490E0,1.177750854E0,9.775828657E0
1.595453183E1,-8.264314270E-1,-9.670939178E0,1.166823578E0,9.776069290E0
1.596453483E1,-8.274792480E-1,-9.682016144E0,1.170865173E0,9.787598468E0
1.597453783E1,-8.563691711E-1,-9.686506805E0,1.172811127E0,9.794757179E0
1.598454083E1,-8.643026733E-1,-9.695787506E0,1.159339142E0,9.803029211E0
1.599454283E1,-8.455915833E-1,-9.693691864E0,1.144969025E0,9.797634467E0
1.600454583E1,-8.195457458E-1,-9.700727234E0,1.130149841E0,9.800663384E0
1.601454883E1,-7.873626709E-1,-9.691745911E0,1.119671631E0,9.787928450E0
1.602455183E1,-7.800279236E-1,-9.683962097E0,1.105151825E0,9.777981694E0
1.603455483E1,-8.129594421E-1,-9.706714783E0,1.129850464E0,9.806007189E0
1.604455783E1,-8.090675354E-1,-9.711504822E0,1.133592682E0,9.810858706E0
1.605456083E1,-8.193960571E-1,-9.744735718E0,1.140628052E0,9.845421091E0
1.606456383E1,-8.473878479E-1,-9.761351166E0,1.155746613E0,9.865991738E0
1.607456683E1,-8.583151245E-1,-9.755662994E0,1.141675873E0,9.859669828E0
1.608456983E1,-8.593629456E-1,-9.740843811E0,1.143023071E0,9.845254926E0
1.609457283E1,-8.774752808E-1,-9.705666962E0,1.137185211E0,9.811377286E0
1.610457583E1,-8.773255920E-1,-9.652078400E0,1.125359802E0,9.756984796E0
1.611457883E1,-8.551716614E-1,-9.660760345E0,1.122366028E0,9.763263518E0
1.612458083E1,-8.758287048E-1,-9.656119995E0,1.125808868E0,9.760900311E0
1.613458383E1,-8.728349304E-1,-9.651329956E0,1.147513733E0,9.758421927E0
1.614458683E1,-8.797206116E-1,-9.627978516E0,1.181642761E0,9.740028658E0
1.615458983E1,-8.701405334E-1,-9.603279877E0,1.200653229E0,9.717082747E0
1.616459283E1,-8.843609619E-1,-9.579928436E0,1.208437042E0,9.696259240E0
1.617459583E1,-8.854087830E-1,-9.567653961E0,1.223256226E0,9.686088314E0
1.618459883E1,-8.740324402E-1,-9.589658203E0,1.246907043E0,9.709801972E0
1.619460183E1,-8.592132568E-1,-9.603878632E0,1.241667938E0,9.721855351E0
1.620460483E1,-8.403524780E-1,-9.613608398E0,1.232836304E0,9.728696936E0
1.621460783E1,-8.292755127E-1,-9.629774780E0,1.248703308E0,9.745743694E0
1.622461083E1,-8.201445007E-1,-9.640552368E0,1.236279144E0,9.754038809E0
1.623461383E1,-8.378077698E-1,-9.658664703E0,1.243913269E0,9.774407702E0
1.624461683E1,-8.355624390E-1,-9.707463226E0,1.240769806E0,9.822042384E0
1.625461883E1,-8.333171082E-1,-9.716145172E0,1.208586731E0,9.826422355E0
1.626462183E1,-8.253836060E-1,-9.728868713E0,1.180445251E0,9.834917159E0
1.627462483E1,-8.095166016E-1,-9.700128479E0,1.154549103E0,9.802081068E0
1.628462783E1,-8.333171082E-1,-9.704768829E0,1.108295288E0,9.803329734E0
1.629463083E1,-8.294252014E-1,-9.720336456E0,1.100810852E0,9.817569532E0
1.630463383E1,-8.619076538E-1,-9.716145172E0,1.080602875E0,9.813972915E0
1.631463683E1,-8.931925964E-1,-9.709858246E0,1.100960541E0,9.812810723E0
1.632463983E1,-9.208850098E-1,-9.713750153E0,1.109792175E0,9.820214351E0
1.633464283E1,-9.431886292E-1,-9.739197235E0,1.113235016E0,9.847886056E0
1.634464583E1,-9.205856323E-1,-9.713600464E0,1.122515717E0,9.821484277E0
1.635464883E1,-9.120533752E-1,-9.705367584E0,1.154249725E0,9.816226043E0
1.636465183E1,-8.918453979E-1,-9.704319763E0,1.154998169E0,9.813420966E0
1.637465483E1,-8.598120117E-1,-9.724078674E0,1.134041748E0,9.827666735E0
1.638465683E1,-8.466394043E-1,-9.708511047E0,1.160686340E0,9.814233430E0
1.639465983E1,-8.469387817E-1,-9.701924744E0,1.134490814E0,9.804678395E0
1.640466283E1,-8.247848511E-1,-9.673483887E0,1.153501282E0,9.776866868E0
1.641466583E1,-8.602610779E-1,-9.642947388E0,1.170715485E0,9.751772054E0
1.642466883E1,-8.960366821E-1,-9.630523224E0,1.191073151E0,9.745179042E0
1.643467183E1,-9.252259827E-1,-9.630523224E0,1.220112762E0,9.751497108E0
1.644467483E1,-9.857002258E-1,-9.635912018E0,1.218166809E0,9.762496388E0
1.645467783E1,-1.010398865E0,-9.683962097E0,1.206640778E0,9.811014715E0
1.646468083E1,-1.018332367E0,-9.712253265E0,1.203347626E0,9.839355152E0
