"Time (s)","Acceleration x (m/s^2)","Acceleration y (m/s^2)","Acceleration z (m/s^2)","Absolute acceleration (m/s^2)"
-2.501916606E-3,4.035907288E0,2.087708588E0,6.921456757E0,8.279712460E0
7.446083240E-3,3.745660858E0,1.990859985E0,6.293362885E0,7.589460794E0
1.739308331E-2,3.343596954E0,2.239043884E0,6.413113861E0,7.571062508E0
2.734008338E-2,2.776426392E0,2.492167511E0,7.381749573E0,8.271013793E0
3.728808346E-2,1.779499512E0,2.398162994E0,8.469387817E0,8.980441763E0
4.723508330E-2,9.066645813E-1,2.038460999E0,9.371861115E0,9.633750290E0
5.718208337E-2,8.587641907E-1,1.592837677E0,9.938283234E0,1.010168706E1
6.713008345E-2,1.730401611E0,1.539249115E0,1.022284149E1,1.048189228E1
7.707708329E-2,3.173251190E0,1.654958496E0,1.026655060E1,1.087246393E1
8.702408336E-2,4.088747406E0,1.178648987E0,1.004800507E1,1.091189601E1
9.697208344E-2,4.028273163E0,2.604583740E-2,9.499246216E0,1.031810747E1
1.069190833E-1,3.573219452E0,-1.076860657E0,9.069340210E0,9.807163605E0
1.168660834E-1,3.469485168E0,-1.614991608E0,8.493787079E0,9.316112074E0
1.268140834E-1,3.526965637E0,-1.733395386E0,8.387508087E0,9.262528709E0
1.367610833E-1,3.817361755E0,-1.825154572E0,8.090974731E0,9.130570195E0
1.467080833E-1,4.263883209E0,-2.013762360E0,8.161478119E0,9.425797788E0
1.566560834E-1,4.602030029E0,-2.125280457E0,1.057625656E1,1.172828633E1
1.666030833E-1,5.549859009E0,-2.030228119E0,1.327768890E1,1.453340235E1
1.765500833E-1,6.249653778E0,-2.079026642E0,1.514834885E1,1.651826253E1
1.864980834E-1,6.285878448E0,-2.076332245E0,1.602492599E1,1.733844505E1
1.964450832E-1,5.681285706E0,-2.207758942E0,1.617401596E1,1.728438599E1
2.063920833E-1,4.381837921E0,-2.561174011E0,1.612461868E1,1.690453914E1
2.163400834E-1,2.784060516E0,-2.813100128E0,1.564651291E1,1.613932748E1
2.262870832E-1,1.775457916E0,-2.930755463E0,1.501467682E1,1.540071746E1
2.362340833E-1,7.125183105E-2,-3.194357300E0,1.478355743E1,1.512489887E1
2.461820834E-1,-3.948788452E-1,-4.097579041E0,1.544937286E1,1.598840846E1
2.561290835E-1,7.243437195E-1,-4.349954224E0,1.447729431E1,1.513402875E1
2.660760833E-1,1.149160309E0,-3.640729065E0,1.066996170E1,1.133241193E1
2.760240834E-1,3.478316803E0,-3.055595856E0,6.874005432E0,8.287780432E0
2.859710834E-1,6.502328339E0,-2.571502533E0,7.645501099E0,1.036081976E1
2.959180833E-1,6.151008911E0,-1.593286743E0,1.154369476E1,1.317688742E1
3.058660834E-1,2.805915070E0,-1.894909515E0,1.290690994E1,1.334361891E1
3.158130834E-1,6.785389709E-1,-2.936144257E0,1.566567307E1,1.595288911E1
3.257600833E-1,-4.038601685E-1,-2.996468811E0,1.906136169E1,1.929967456E1
3.357080834E-1,-5.248086548E-1,-3.318748627E0,2.127450943E1,2.153820485E1
3.456550834E-1,3.423381042E-1,-4.595593414E0,2.190499832E1,2.238449521E1
3.556020833E-1,2.081571350E0,-5.559289398E0,2.181114349E1,2.260452650E1
3.655500833E-1,3.891906738E0,-5.705984344E0,1.972508148E1,2.089937882E1
3.754970834E-1,5.104684753E0,-5.663921814E0,1.665975586E1,1.832171613E1
3.854440833E-1,5.875282288E0,-5.438191223E0,1.342288696E1,1.562903580E1
3.953920833E-1,6.518644409E0,-4.846022644E0,1.061337936E1,1.336489738E1
4.053390834E-1,7.382048950E0,-4.341871033E0,9.485923920E0,1.278003300E1
4.152860832E-1,7.473209381E0,-4.212539978E0,9.723779297E0,1.296712132E1
4.252340833E-1,7.470215607E0,-4.074826355E0,1.082099762E1,1.376598418E1
4.351810834E-1,7.993826752E0,-4.079167328E0,1.233689529E1,1.525581390E1
4.451280835E-1,8.147856445E0,-4.233197021E0,1.361179413E1,1.641914922E1
4.550760833E-1,7.798482971E0,-4.482428741E0,1.397329239E1,1.661810471E1
4.650230834E-1,6.982230377E0,-4.050127716E0,1.342378510E1,1.566375057E1
4.749700835E-1,6.500681763E0,-3.891457672E0,1.286664368E1,1.493160493E1
4.849180833E-1,5.337301025E0,-4.518952789E0,1.145298340E1,1.341933476E1
4.948650834E-1,2.534828796E0,-4.522994385E0,9.261989594E0,1.061448475E1
5.048120834E-1,1.142574005E0,-3.798650665E0,7.403005371E0,8.398792220E0
5.147600833E-1,1.679357758E0,-2.603086853E0,4.176464996E0,5.199919567E0
5.247070834E-1,3.782334595E0,-1.247056732E0,1.219963074E0,4.165274947E0
5.346550834E-1,4.020040283E0,-6.900650024E-1,2.074685669E-1,4.084110282E0
5.446020833E-1,3.566333771E0,-7.093748474E-1,6.749464417E-1,3.698310687E0
5.545490833E-1,3.060086517E0,-6.391708374E-1,8.511300659E-1,3.239921487E0
5.644960834E-1,2.198178864E0,-7.596702576E-1,5.791456604E-1,2.396768431E0
5.744440833E-1,1.488654327E0,-9.996212769E-1,7.027885437E-1,1.925940326E0
5.843910833E-1,1.517244873E0,-1.053958282E0,1.460213470E0,2.354800086E0
5.943390834E-1,2.054028625E0,-4.399351501E-1,2.067650299E0,2.947499668E0
6.042860833E-1,2.186503143E0,-2.878514099E-1,2.090702362E0,3.038863405E0
6.142330833E-1,1.386267242E0,-6.840774536E-1,1.418899384E0,2.098326545E0
6.241810834E-1,3.558100891E-1,-7.958949280E-1,1.526824951E-1,8.850771154E-1
6.341280832E-1,-4.191284180E-2,-8.312214661E-1,2.121089172E-1,8.588806697E-1
6.440750833E-1,-4.354444885E-1,-1.143771515E0,1.490899658E0,1.928887496E0
6.540230834E-1,-1.953437805E0,-1.812880096E0,2.501747589E0,3.655296774E0
6.639700835E-1,-4.126319275E0,-2.703677673E0,4.712350616E0,6.822216066E0
6.739170833E-1,-6.196364594E0,-2.528392181E0,1.264570312E0,6.810788447E0
6.838650834E-1,-5.347330170E0,-1.875899048E0,2.288740540E-1,5.671447832E0
6.938120835E-1,-3.129991150E0,-1.860032043E0,9.741741943E-1,3.769028942E0
7.037590833E-1,-1.502575378E0,-1.690883789E0,2.158211975E0,3.126451613E0
7.137070834E-1,-1.055455170E0,-1.056802368E0,2.468516693E0,2.885202164E0
7.236540834E-1,7.837701416E-1,-2.401007080E-1,2.243085480E0,2.388174293E0
7.336010833E-1,4.104614410E0,5.673202515E-2,1.518143005E0,4.376738074E0
7.435490834E-1,4.065246277E0,-1.021924896E0,1.181493073E0,4.355052659E0
7.534962499E-1,2.721790009E0,-1.074765015E0,1.357826385E0,3.225980964E0
7.634432500E-1,1.963017883E0,8.418493652E-1,1.231339417E0,2.465430251E0
7.733912501E-1,2.157164154E0,3.581003265E0,4.840933228E-1,4.208478100E0
7.833382501E-1,2.140548706E0,6.207591248E0,-9.539662170E-1,6.635223388E0
7.932852500E-1,2.973267059E0,7.947722626E0,-6.869215393E-1,8.513428989E0
8.032332500E-1,2.855462036E0,8.859027557E0,1.692230988E0,9.460426968E0
8.131802501E-1,9.271719360E-1,1.025472519E1,6.474785614E0,1.216313632E1
8.231272500E-1,1.329235840E-1,1.595606918E1,1.129670837E1,1.955068880E1
8.330752500E-1,1.149759064E0,1.959245728E1,7.205565948E0,2.090709230E1
8.430222501E-1,2.076182556E0,2.147793640E1,5.244793396E0,2.220630865E1
8.529692499E-1,3.665278015E0,2.642005920E1,9.922565918E0,2.845893718E1
8.629172500E-1,-1.052162018E0,2.977952316E1,1.096874039E1,3.175280004E1
8.728642501E-1,-5.523962860E0,3.060834961E1,1.594783630E1,3.495309306E1
8.828112499E-1,-7.427554321E0,3.164674026E1,1.803524551E1,3.717465283E1
8.927592500E-1,-9.094338226E0,3.162563416E1,1.951342163E1,3.825782727E1
9.027062501E-1,-8.470136261E0,3.019999878E1,2.036470139E1,3.739658002E1
9.126532499E-1,-5.585484924E0,2.790122910E1,2.015828064E1,3.487165762E1
9.226012500E-1,-1.959724731E0,2.562715805E1,1.808224777E1,3.142545839E1
9.325482501E-1,5.968089294E-1,2.302107742E1,1.429766785E1,2.710626298E1
9.424952499E-1,1.897154846E0,2.018687119E1,9.915680237E0,2.257054894E1
9.524432500E-1,2.063459015E0,1.745714767E1,5.561235352E0,1.843738611E1
9.623902501E-1,1.574126587E0,1.438568481E1,2.409838715E0,1.467082563E1
9.723372501E-1,1.417851562E0,1.129266678E1,7.741900635E-1,1.140762886E1
9.822852500E-1,2.032623138E0,8.538993073E0,2.032772827E-1,8.779936285E0
9.922322500E-1,2.448159027E0,6.070925446E0,-1.845661926E-1,6.548563435E0
1.002179250E0,2.763852539E0,3.713926849E0,-7.589218140E-1,4.691278698E0
1.012127250E0,2.302661591E0,1.474882965E0,-1.286125488E0,3.021861832E0
1.022074250E0,1.415606232E0,-4.204756165E-1,-1.517693939E0,2.117577777E0
1.032021250E0,6.722520447E-1,-1.916165314E0,-1.524429932E0,2.539192576E0
1.041969250E0,2.947370911E-1,-3.473526764E0,-1.124761047E0,3.662969498E0
1.051916250E0,7.655081177E-1,-4.761298828E0,-1.534309387E-1,4.824884482E0
1.061863250E0,2.324965210E0,-5.397326202E0,1.409169617E0,6.043372599E0
1.071811250E0,3.882176971E0,-5.785618744E0,2.863844604E0,7.533013222E0
1.081758250E0,5.124892731E0,-6.039790192E0,3.614832916E0,8.706928739E0
1.091705250E0,5.990243225E0,-6.050118713E0,3.795207825E0,9.321510220E0
1.101653250E0,6.528374176E0,-5.996380463E0,3.918551331E0,9.691815752E0
1.111600250E0,6.759044495E0,-6.036047974E0,4.261039124E0,1.001374116E1
1.121547250E0,6.538403320E0,-5.956862640E0,4.449946289E0,9.901361142E0
1.131495250E0,5.890101471E0,-5.665718079E0,3.940555573E0,9.073127074E0
1.141442250E0,5.180726624E0,-5.195994873E0,2.902314606E0,7.890609681E0
1.151389250E0,4.227059784E0,-4.628824310E0,1.732048187E0,6.503386797E0
1.161337250E0,3.240162048E0,-3.910468140E0,5.593867493E-1,5.109141289E0
1.171284250E0,2.706222382E0,-3.117267609E0,-4.490661621E-1,4.152427885E0
1.181231250E0,2.478695526E0,-2.412084045E0,-1.253942413E0,3.678920022E0
1.191179250E0,2.413281555E0,-1.757794647E0,-1.832040253E0,3.502876157E0
1.201126250E0,2.144590302E0,-1.313817902E0,-2.290237427E0,3.401554426E0
1.211073250E0,1.503772888E0,-1.184935913E0,-2.464624786E0,3.120862277E0
1.221021250E0,7.195536804E-1,-1.082848206E0,-2.282752991E0,2.627028540E0
1.230968250E0,-3.248245239E-1,-1.042731628E0,-2.083367615E0,2.352279923E0
1.240915250E0,-1.418899384E0,-1.050515442E0,-1.766326904E0,2.497352375E0
1.250863250E0,-1.801054688E0,-1.031355286E0,-1.623374176E0,2.634926076E0
1.260810250E0,-1.840871887E0,-1.032103729E0,-1.852248230E0,2.808001232E0
1.270757250E0,-1.794767761E0,-1.321152649E0,-1.904040527E0,2.931212372E0
1.280705250E0,-1.451681213E0,-1.570983124E0,-1.750759277E0,2.764149845E0
1.290652250E0,-8.949888611E-1,-1.586700439E0,-1.598525848E0,2.423614704E0
1.300599250E0,-2.206411743E-1,-1.536854095E0,-7.089257812E-1,1.706803680E0
1.310547250E0,1.395098877E-1,-1.379980316E0,5.108876038E-1,1.478111912E0
1.320494250E0,1.169218597E0,-7.661068726E-1,1.154698792E0,1.813097120E0
1.330441250E0,4.012256470E0,4.923262024E-1,1.444645844E0,4.292736736E0
1.340389250E0,8.383765869E0,2.218536530E0,2.294578400E0,8.970759417E0
1.350336250E0,1.308024948E1,4.566404114E0,3.653452606E0,1.432803856E1
1.360283250E0,1.626921799E1,8.650960236E0,6.246959381E0,1.945638888E1
1.370231250E0,1.422327255E1,1.471006027E1,1.095332245E1,2.320910657E1
1.380178250E0,2.584076385E0,2.048085983E1,1.782538193E1,2.727429763E1
1.390125250E0,-1.155342453E1,2.932177505E1,2.388014099E1,3.954123474E1
1.400073250E0,-2.071497299E1,3.922248642E1,2.568433914E1,5.125620766E1
1.410020250E0,-2.578732498E1,4.511887482E1,2.260868500E1,5.667320030E1
1.419967250E0,-2.682990692E1,4.916481125E1,2.025692551E1,5.955976496E1
1.429915250E0,-2.566802307E1,5.067008102E1,2.207474533E1,6.093930506E1
1.439862250E0,-2.310011307E1,4.976566177E1,2.545756073E1,6.048407818E1
1.449809250E0,-1.905282944E1,4.614753571E1,2.658396835E1,5.656246754E1
1.459757250E0,-1.313204178E1,4.037868210E1,2.533167252E1,4.944271556E1
1.469704250E0,-6.192622375E0,3.485920990E1,2.267379959E1,4.204300506E1
1.479651250E0,-5.496569824E-1,3.003998154E1,1.853325989E1,3.530133617E1
1.489599250E0,1.869013367E0,2.507121414E1,1.342228821E1,2.849941772E1
1.499546250E0,2.004182281E0,2.026156586E1,8.771459656E0,2.216949034E1
1.509493250E0,1.597627716E0,1.612895966E1,4.923112335E0,1.693909056E1
1.519441250E0,1.341959381E0,1.257579849E1,1.821711731E0,1.277772266E1
1.529388250E0,1.426982574E0,9.500743103E0,-1.895059204E-1,9.609178491E0
1.539335250E0,1.537303162E0,6.962022400E0,-1.218466187E0,7.233098697E0
1.549283250E0,1.274449768E0,4.888833618E0,-1.949994965E0,5.415477515E0
1.559230250E0,8.331674194E-1,2.979254608E0,-2.147883453E0,3.766102667E0
1.569177250E0,4.513114929E-1,1.325643311E0,-2.012415161E0,2.451698805E0
1.579125250E0,8.652008057E-2,-1.098715210E-1,-1.902992706E0,1.908124397E0
1.589072250E0,-3.435356140E-1,-1.660347290E0,-2.033970337E0,2.647981339E0
1.599020250E0,-4.526586914E-1,-3.082240448E0,-2.038311310E0,3.722877794E0
1.608967250E0,9.624984741E-2,-4.059109039E0,-1.700912933E0,4.402128466E0
1.618914250E0,8.725355530E-1,-4.700525208E0,-9.756710815E-1,4.879363645E0
1.628861250E0,1.360071716E0,-5.328319702E0,-2.487826538E-1,5.504786892E0
1.638809250E0,1.732347565E0,-5.787564697E0,2.980302429E-1,6.048615977E0
1.648756250E0,1.922452240E0,-6.086493073E0,5.782475281E-1,6.409024164E0
1.658704250E0,2.139351196E0,-6.329138489E0,6.936575317E-1,6.716842884E0
1.668651250E0,2.137704620E0,-6.519692230E0,4.294569397E-1,6.874634615E0
1.678598250E0,1.930535431E0,-6.502178650E0,-1.495390320E-1,6.784368516E0
1.688546250E0,2.061363373E0,-6.320606232E0,-6.855743408E-1,6.683509128E0
1.698493250E0,2.511776733E0,-6.086193695E0,-1.310824127E0,6.713347596E0
1.708440250E0,3.148253174E0,-5.783672791E0,-1.807341614E0,6.828532251E0
1.718387250E0,3.516936493E0,-5.450166321E0,-2.046693878E0,6.801625618E0
1.728335250E0,3.474125519E0,-4.910239105E0,-1.913171539E0,6.311911084E0
1.738282250E0,2.971321106E0,-4.299808502E0,-1.687890015E0,5.492365153E0
1.748230250E0,2.067350922E0,-3.821553040E0,-1.384470978E0,4.560149927E0
1.758177958E0,1.107097778E0,-3.460503845E0,-1.076112213E0,3.789296749E0
1.768124958E0,4.492158508E-1,-3.039130096E0,-7.432044983E-1,3.160768823E0
1.778072958E0,2.685415649E-1,-2.575394440E0,-3.553610229E-1,2.613628235E0
1.788019958E0,2.894979858E-1,-1.932631073E0,-1.516346741E-1,1.960067607E0
1.797966958E0,1.194515991E-1,-1.088686066E0,-1.791773987E-1,1.109779516E0
1.807914958E0,-3.939807129E-1,-2.237846375E-1,-1.047821045E-3,4.531020459E-1
1.817861958E0,-1.304088135E0,5.215155029E-1,1.142124939E-1,1.409137600E0
1.827808958E0,-2.431393890E0,1.440304871E0,5.086422729E-1,2.871388398E0
1.837756958E0,-3.187022552E0,2.736309814E0,1.136436768E0,4.351550606E0
1.847703958E0,-3.299738159E0,4.327650604E0,1.717827759E0,5.706817316E0
1.857650958E0,-2.223625946E0,6.347849579E0,2.333347778E0,7.119284970E0
1.867598958E0,-3.838018799E-1,8.747659149E0,2.692900085E0,9.160816303E0
1.877545958E0,1.312919769E0,1.115330658E1,2.607128448E0,1.152896894E1
1.887492958E0,2.454445953E0,1.382480118E1,2.070494385E0,1.419282845E1
1.897440958E0,3.247646484E0,1.717573288E1,9.916877747E-1,1.750818244E1
1.907387958E0,2.512824554E0,2.111988098E1,3.457809448E-2,2.126887058E1
1.917334958E0,-6.134243774E-1,2.521461594E1,-7.138655090E-1,2.523217688E1
1.927282958E0,-4.264481964E0,2.944975891E1,-1.125659180E0,2.977820033E1
1.937229958E0,-5.752986603E0,3.385434952E1,-4.656816101E-1,3.434284053E1
1.947176958E0,-5.469476166E0,3.708627869E1,1.648821259E0,3.752367050E1
1.957124958E0,-3.560196533E0,3.916231155E1,4.214635620E0,3.954901767E1
1.967071958E0,-1.482816467E0,4.085663818E1,7.669750671E0,4.159673910E1
1.977018958E0,-1.266067200E0,4.209546204E1,1.163260986E1,4.369151476E1
1.986966958E0,-2.868185577E0,4.221805710E1,1.402014496E1,4.457752010E1
1.996913958E0,-4.815037079E0,4.073254623E1,1.407807449E1,4.336492922E1
2.006860958E0,-6.026617584E0,3.797528000E1,1.201656143E1,4.028448534E1
2.016808958E0,-5.493725739E0,3.419534042E1,8.581205292E0,3.568107921E1
2.026755958E0,-3.895050201E0,2.966950195E1,5.043761444E0,3.034617425E1
2.036702958E0,-2.418071594E0,2.470672211E1,2.409988403E0,2.494147613E1
2.046650958E0,-1.090482330E0,1.961386276E1,7.773335266E-1,1.965952725E1
2.056597958E0,8.083190918E-3,1.453327789E1,-2.182461548E-1,1.453491875E1
2.066544958E0,8.659492493E-1,9.833501129E0,-4.781057739E-1,9.883126919E0
2.076492958E0,1.352587280E0,5.675597534E0,-2.589614868E-1,5.840287730E0
2.086439958E0,1.413809967E0,2.079625397E0,2.890489197E-1,2.531254569E0
2.096386958E0,1.298998718E0,-8.402027893E-1,6.364764404E-1,1.672854045E0
2.106334958E0,9.630972290E-1,-3.307971039E0,6.427633667E-1,3.504764387E0
2.116281958E0,6.509962463E-1,-5.413642273E0,4.978646851E-1,5.475325380E0
2.126228958E0,1.284329224E-1,-6.849755859E0,1.842668152E-1,6.853437430E0
2.136176958E0,-9.804611206E-2,-7.678133240E0,-1.953437805E-1,7.681243537E0
2.146123958E0,4.261637878E-1,-8.030500488E0,-4.294569397E-1,8.053259398E0
2.156070958E0,1.322649536E0,-8.082143097E0,-5.725593567E-1,8.209644514E0
2.166018958E0,2.068099365E0,-7.910599823E0,-6.146218872E-1,8.199535634E0
2.175965958E0,2.581980743E0,-7.379354553E0,-6.379733276E-1,7.844010973E0
2.185912958E0,2.750081177E0,-6.743177490E0,-7.797285461E-1,7.324026608E0
2.195860958E0,2.489323425E0,-6.107748871E0,-8.927435303E-1,6.655698190E0
2.205807958E0,2.044298859E0,-5.438789978E0,-1.088686066E0,5.911415363E0
2.215754958E0,1.350341949E0,-4.916526031E0,-1.358874207E0,5.276569976E0
2.225702958E0,8.258326721E-1,-4.334536285E0,-1.361119537E0,4.617667247E0
2.235649958E0,6.915618896E-1,-3.627855835E0,-1.425635376E0,3.958791739E0
2.245596958E0,7.421566772E-1,-2.975362701E0,-1.340163116E0,3.346582872E0
2.255544958E0,7.717950439E-1,-2.428100739E0,-1.130000153E0,2.787156460E0
2.265491958E0,7.023394775E-1,-1.885928192E0,-8.408015442E-1,2.181044045E0
2.275438958E0,6.352789307E-1,-1.412313080E0,-5.007087708E-1,1.627549332E0
2.285386958E0,5.965095520E-1,-1.072519684E0,-2.631527710E-1,1.255138040E0
2.295333958E0,6.352789307E-1,-8.601113892E-1,-2.447410583E-1,1.096936237E0
2.305280958E0,7.803273010E-1,-5.409750366E-1,-1.448986816E-1,9.605000338E-1
2.315228958E0,6.801855469E-1,-9.789642334E-2,1.586700439E-2,6.873775162E-1
2.325175958E0,5.845344543E-1,4.755610657E-1,1.133143616E-1,7.620229656E-1
2.335122958E0,1.332229614E-2,1.011446686E0,6.436614990E-2,1.013580230E0
2.345070958E0,-1.071621552E0,1.580712891E0,-8.966354370E-2,1.911822571E0
2.355017958E0,-2.261347504E0,2.221380615E0,-3.109034729E-1,3.185103662E0
2.364964958E0,-3.280578003E0,2.859653320E0,-7.997868347E-1,4.424869278E0
2.374912958E0,-3.584895172E0,3.814966736E0,-1.644031219E0,5.487101534E0
2.384859958E0,-3.322939911E0,5.284460907E0,-3.110980682E0,6.974643900E0
2.394806958E0,-2.514770508E0,7.058571625E0,-5.412893829E0,9.243750521E0
2.404754958E0,-1.256636810E0,8.929081879E0,-8.099656677E0,1.212072925E1
2.414701958E0,6.840774536E-2,9.902657318E0,-8.488098907E0,1.304281889E1
2.424648958E0,3.205883331E0,1.094778397E1,-3.855532379E0,1.204146136E1
2.434596958E0,8.072712708E0,1.325194244E1,4.090094604E0,1.604716619E1
2.444543958E0,1.238464600E1,1.716375778E1,1.277189072E1,2.472034041E1
2.454490958E0,1.217238739E1,2.185365509E1,2.111269592E1,3.273370105E1
2.464438958E0,6.149362335E0,2.570709183E1,2.655447968E1,3.746744745E1
2.474385958E0,-6.640191650E-1,3.027184937E1,2.812112183E1,4.132339868E1
2.484332958E0,-4.923262024E0,3.464665192E1,2.673859680E1,4.404068070E1
2.494280958E0,-6.432573395E0,3.733072037E1,2.221290802E1,4.391325502E1
2.504227958E0,-7.697443085E0,3.949686584E1,1.761207550E1,4.392537131E1
2.514174958E0,-9.651030579E0,4.092145340E1,1.486064713E1,4.459312248E1
2.524122958E0,-1.178634018E1,4.063105728E1,1.285586609E1,4.421621788E1
2.534069958E0,-1.223974731E1,3.831432495E1,1.028391449E1,4.151575373E1
2.544016958E0,-1.018856277E1,3.441119156E1,7.383994904E0,3.663960012E1
2.553964958E0,-6.021079102E0,2.986694138E1,4.368365936E0,3.077937949E1
2.563911958E0,-1.373094635E0,2.541445038E1,1.517095184E0,2.549669105E1
2.573858958E0,1.731599121E0,2.100462067E1,-4.068539429E-1,2.107980206E1
2.583806958E0,3.142864380E0,1.667457504E1,-1.411414948E0,1.702677719E1
2.593753958E0,3.549418945E0,1.274749146E1,-1.677711182E0,1.333835177E1
2.603700958E0,3.488196259E0,9.450896759E0,-1.703307953E0,1.021705538E1
2.613648958E0,3.381767578E0,6.509962463E0,-1.885030060E0,7.574252541E0
2.623595958E0,3.147355042E0,3.883224792E0,-1.944456482E0,5.363412119E0
2.633542958E0,2.300565948E0,1.819316711E0,-1.933080139E0,3.512736228E0
2.643490958E0,8.743318176E-1,-8.532257080E-3,-1.763632507E0,1.968483819E0
2.653437958E0,-1.167572021E-1,-1.485211487E0,-1.459015961E0,2.085236912E0
2.663384958E0,-1.788780212E-1,-2.769391022E0,-8.903485107E-1,2.914488711E0
2.673332958E0,3.038681030E-1,-3.908222809E0,-3.721261597E-1,3.937641328E0
2.683279958E0,9.288185120E-1,-4.671335907E0,-3.906875610E-2,4.762941250E0
2.693226958E0,1.336420898E0,-5.274880829E0,2.160008240E-1,5.445828214E0
2.703174958E0,1.684896240E0,-5.778134308E0,1.924996948E-1,6.021857484E0
2.713121958E0,2.340083771E0,-6.046077118E0,1.008901978E-1,6.483920064E0
2.723068958E0,3.068768463E0,-6.131848755E0,8.921447754E-2,6.857468065E0
2.733016958E0,3.529660034E0,-6.045029297E0,-5.388793945E-2,7.000270214E0
2.742963958E0,3.463198242E0,-5.896089020E0,-1.760339355E-1,6.840218983E0
2.752910958E0,3.139870605E0,-5.576952667E0,-3.671864319E-1,6.410617314E0
2.762858333E0,2.698438568E0,-5.178481293E0,-5.360353088E-1,5.863921304E0
2.772805333E0,2.322270813E0,-4.733905792E0,-7.542814636E-1,5.326513522E0
2.782752333E0,2.228116608E0,-4.299209747E0,-9.321116638E-1,4.931180409E0
2.792700333E0,2.255809021E0,-3.869154053E0,-9.672885132E-1,4.581994597E0
2.802647333E0,2.218835907E0,-3.365900574E0,-9.268725586E-1,4.136618449E0
2.812594333E0,2.075434113E0,-2.879711609E0,-9.231303406E-1,3.667742539E0
2.822542333E0,1.566043396E0,-2.468816071E0,-9.096583557E-1,3.061865940E0
2.832489333E0,7.906558228E-1,-2.177222443E0,-8.652008057E-1,2.472651740E0
2.842436333E0,-8.711883545E-2,-2.048340454E0,-8.635542297E-1,2.224637996E0
2.852384333E0,-1.013242950E0,-1.983375549E0,-9.782157898E-1,2.432559553E0
2.862331333E0,-1.864373016E0,-1.909579010E0,-1.030307465E0,2.860753784E0
2.872278333E0,-2.159409485E0,-1.667232971E0,-9.607022095E-1,2.892345733E0
2.882226333E0,-2.034419403E0,-1.326990509E0,-6.321354675E-1,2.509852858E0
2.892173333E0,-1.955683136E0,-9.725276184E-1,-1.595681763E-1,2.189969977E0
2.902120333E0,-2.046244812E0,-7.587721252E-1,2.035766602E-1,2.191870531E0
2.912068333E0,-2.180964661E0,-1.246907043E-1,4.761598206E-1,2.235818149E0
2.922015333E0,-2.003284149E0,1.494192810E0,9.154962158E-1,2.661558351E0
2.931962333E0,-2.001188507E0,3.893703003E0,1.808389435E0,4.736660307E0
2.941910333E0,-1.991758118E0,7.085515594E0,2.893632660E0,7.908523352E0
2.951857333E0,-1.844165039E0,1.075797867E1,3.940854950E0,1.160454167E1
2.961804333E0,-1.653611298E0,1.457983109E1,4.962480469E0,1.548974232E1
2.971752333E0,-2.035916290E0,1.871752670E1,6.005960541E0,1.976264970E1
2.981699333E0,-3.208428040E0,2.340547806E1,5.600603485E0,2.427915099E1
2.991646333E0,-5.559588776E0,2.786081314E1,3.755989380E0,2.865730958E1
3.001594333E0,-9.003626862E0,3.110950745E1,1.475332031E0,3.241979881E1
3.011541333E0,-9.457483063E0,3.431583984E1,-2.874023438E-2,3.559524794E1
3.021488333E0,-6.375092926E0,3.759447189E1,4.754113770E-1,3.813413356E1
3.031436333E0,-3.018173676E0,4.001912979E1,2.797682190E0,4.023017707E1
3.041383333E0,-1.275946655E0,4.226401154E1,5.694009247E0,4.266493235E1
3.051330333E0,-2.329605560E0,4.410623062E1,9.417815552E0,4.516062324E1
3.061278333E0,-5.462889862E0,4.469705200E1,1.318503159E1,4.692030138E1
3.071225333E0,-9.617051239E0,4.349370438E1,1.559936096E1,4.719671659E1
3.081172333E0,-1.311886917E1,4.044619171E1,1.653311920E1,4.562174024E1
3.091120333E0,-1.281021103E1,3.621284500E1,1.612581619E1,4.165949589E1
3.101067333E0,-8.726702728E0,3.130919220E1,1.471200623E1,3.567721940E1
3.111014333E0,-4.200714569E0,2.592099701E1,1.236174362E1,2.902338358E1
3.120962333E0,-1.055305481E0,2.064746338E1,9.226812744E0,2.263990917E1
3.130909333E0,3.023712158E-1,1.601504654E1,5.737718353E0,1.701453954E1
3.140856333E0,2.594105530E-1,1.198482742E1,2.027982788E0,1.215796432E1
3.150804333E0,-3.935316467E-1,8.384813690E0,-1.384620667E0,8.507475664E0
3.160751333E0,-8.292755127E-1,5.140759735E0,-4.002227325E0,6.567566680E0
3.170698333E0,-8.009843445E-1,2.410437469E0,-5.614075470E0,6.161950024E0
3.180646333E0,-3.266207886E-1,1.529818726E-1,-6.223308563E0,6.233751203E0
3.190593333E0,2.263293457E-1,-1.572180634E0,-5.865103455E0,6.076381773E0
3.200540333E0,1.737886047E-1,-3.038082275E0,-4.679119720E0,5.581604406E0
3.210488333E0,-5.254074097E-1,-4.465214539E0,-3.261866913E0,5.554634964E0
3.220435333E0,-1.094523926E0,-5.751489716E0,-1.763632507E0,6.114574081E0
3.230382333E0,-8.749305725E-1,-6.551426239E0,-1.585203552E-1,6.611491358E0
3.240330333E0,1.088237000E-1,-7.134912872E0,1.128952332E0,7.224497052E0
3.250277333E0,1.525777130E0,-7.719597015E0,1.779948578E0,8.067737655E0
3.260224333E0,2.986739044E0,-8.088430023E0,1.694476318E0,8.787181593E0
3.270172333E0,3.957620087E0,-8.241711273E0,9.560618591E-1,9.192530432E0
3.280119333E0,4.357288971E0,-8.072563019E0,-1.384620667E-1,9.174497949E0
3.290066333E0,3.960314484E0,-7.479945374E0,-9.851014709E-1,8.520803865E0
3.300014333E0,3.305126953E0,-6.653064880E0,-1.358574829E0,7.552010464E0
3.309961333E0,2.656675415E0,-5.890400848E0,-1.181343384E0,6.568890211E0
3.319908333E0,1.885928192E0,-4.991370392E0,-8.921447754E-1,5.409845269E0
3.329856333E0,1.272054749E0,-3.927083588E0,-7.292834473E-1,4.191892548E0
3.339803333E0,7.658074951E-1,-2.791544952E0,-5.562432861E-1,2.947641588E0
3.349750333E0,2.170486450E-1,-1.773062897E0,-5.002597046E-1,1.855026124E0
3.359698333E0,-2.360591125E-1,-9.041198730E-1,-2.722837830E-1,9.732908650E-1
3.369645333E0,-6.574328613E-1,-1.652563477E-1,4.400848389E-2,6.793116915E-1
3.379592333E0,-1.262025604E0,5.267546082E-1,2.860551453E-1,1.397142294E0
3.389540333E0,-1.821112976E0,1.141675873E0,4.764591980E-1,2.201565270E0
3.399487333E0,-2.063908081E0,1.601819000E0,6.041436768E-1,2.681516410E0
3.409434333E0,-2.079475708E0,1.798959045E0,6.204597473E-1,2.818766249E0
3.419382333E0,-1.749112701E0,1.877246246E0,5.284011841E-1,2.619667254E0
3.429329333E0,-1.264869690E0,2.011666718E0,5.162763977E-1,2.431715369E0
3.439276333E0,-1.166973267E0,2.121837616E0,5.706134033E-1,2.487894919E0
3.449224333E0,-1.385967865E0,2.273921356E0,7.851173401E-1,2.776334723E0
3.459171333E0,-1.679657135E0,2.476749573E0,9.767189026E-1,3.147938429E0
3.469118333E0,-1.648222504E0,2.747985535E0,1.076261902E0,3.380296082E0
3.479066333E0,-1.387764130E0,3.114423523E0,1.062490540E0,3.571331587E0
3.489013333E0,-6.960525513E-1,3.601809998E0,9.372010803E-1,3.786273931E0
3.498960333E0,9.511221313E-1,4.316423950E0,8.469387817E-1,4.500383798E0
3.508908333E0,3.554059296E0,5.425916748E0,9.931846619E-1,6.561884318E0
3.518855333E0,6.681655426E0,6.983278198E0,1.079555054E0,9.725026105E0
3.528802333E0,9.843380585E0,9.247320099E0,1.077908478E0,1.354868839E1
3.538750333E0,1.125569366E1,1.247924927E1,9.291178894E-1,1.683108916E1
3.548697333E0,9.356443176E0,1.628583344E1,7.771838379E-1,1.879828222E1
3.558644333E0,4.752167816E0,2.007355682E1,5.402265930E-1,2.063547013E1
3.568592333E0,2.140548706E-1,2.442231354E1,5.736071777E-1,2.442998656E1
3.578539333E0,-1.425485687E0,2.959001724E1,1.027613068E0,2.964215104E1
3.588486333E0,-1.408720551E0,3.424099548E1,1.363664246E0,3.429708217E1
3.598434333E0,-1.809886322E0,3.819277771E1,2.167342987E0,3.829701468E1
3.608381333E0,-3.966302032E0,4.192751129E1,4.810396729E0,4.238853231E1
3.618328333E0,-8.199199677E0,4.459271896E1,8.900191956E0,4.620552864E1
3.628276333E0,-1.217313583E1,4.527889206E1,1.324311081E1,4.872107640E1
3.638223333E0,-1.372196503E1,4.378005890E1,1.738679398E1,4.906410588E1
3.648170333E0,-1.256247620E1,4.065770187E1,2.038460999E1,4.718470996E1
3.658118333E0,-9.216035156E0,3.655218933E1,2.162268539E1,4.345731667E1
3.668065333E0,-5.087769928E0,3.143732574E1,2.072245743E1,3.799488248E1
3.678012333E0,-1.848805389E0,2.591036911E1,1.817715042E1,3.170448085E1
3.687960333E0,-5.613327026E-2,2.055181229E1,1.471589813E1,2.527721893E1
3.697907333E0,8.893006897E-1,1.562001801E1,1.049931656E1,1.884174797E1
3.707854333E0,1.441053314E0,1.119057907E1,6.076314240E0,1.281511956E1
3.717802333E0,1.845212860E0,7.271728363E0,1.614841919E0,7.674018394E0
3.727749333E0,2.010469208E0,3.643872528E0,-2.564766541E0,4.888539746E0
3.737696333E0,2.743045807E0,6.032455444E-1,-5.886808319E0,6.522477878E0
3.747644333E0,3.974085846E0,-1.472188568E0,-7.933801575E0,8.994770976E0
3.757591083E0,4.943320312E0,-2.725382538E0,-8.751101990E0,1.041373668E1
3.767538083E0,4.433779907E0,-3.476071472E0,-8.171806641E0,9.925719164E0
3.777486083E0,2.316732330E0,-3.846401367E0,-6.706653442E0,8.071013106E0
3.787433083E0,-2.136058044E-1,-3.738775177E0,-4.862189026E0,6.137177640E0
3.797380083E0,-1.964664459E0,-3.619922333E0,-3.143912201E0,5.181498631E0
3.807328083E0,-2.560425568E0,-3.747756500E0,-1.722917175E0,4.854884290E0
3.817275083E0,-2.094594269E0,-4.239483948E0,-4.261637878E-1,4.747858977E0
3.827222083E0,-5.086422729E-1,-4.500092010E0,9.181906128E-1,4.620889424E0
3.837170083E0,1.275497589E0,-4.469405823E0,2.069147186E0,5.087617575E0
3.847117083E0,2.542313232E0,-4.517156525E0,2.845283203E0,5.913010751E0
3.857064083E0,3.074007568E0,-4.428989868E0,3.017425232E0,6.178214047E0
3.867012083E0,2.630779266E0,-4.200415192E0,2.555485840E0,5.576288659E0
3.876959083E0,1.548978882E0,-3.982618103E0,1.678908691E0,4.591221725E0
3.886906083E0,7.122189331E-1,-3.527714081E0,6.688092041E-1,3.660509281E0
3.896854083E0,2.570155334E-1,-2.829266510E0,-3.263214111E-1,2.859596411E0
3.906801083E0,-1.031355286E-1,-2.183659058E0,-1.118025055E0,2.455398917E0
3.916748083E0,-2.868035889E-1,-1.647024994E0,-1.505120087E0,2.249518638E0
3.926696083E0,-4.806504822E-1,-1.082698517E0,-1.286424866E0,1.748756672E0
3.936643083E0,-5.505551147E-1,-4.293072510E-1,-7.038363647E-1,9.913633433E-1
3.946590083E0,-6.604266357E-1,1.429527283E-1,-5.448669434E-2,6.779141712E-1
3.956538083E0,-7.135661316E-1,5.767506409E-1,5.273533630E-1,1.058262489E0
3.966485083E0,-8.984317017E-1,7.972421265E-1,9.689350891E-1,1.543246493E0
3.976433083E0,-1.103654938E0,9.659413147E-1,1.440304871E0,2.055620336E0
3.986380083E0,-1.148860931E0,1.264420624E0,1.750310211E0,2.445859111E0
3.996327083E0,-1.154399414E0,1.556613007E0,1.718576202E0,2.590209687E0
4.006274083E0,-1.331630859E0,1.709594879E0,1.448088684E0,2.606322358E0
4.016222083E0,-1.649270325E0,1.844763794E0,1.177301788E0,2.740307567E0
4.026169083E0,-1.815873871E0,2.203417969E0,8.875044250E-1,2.990002135E0
4.036117083E0,-1.697470093E0,2.633473663E0,5.526507568E-1,3.181510822E0
4.046064083E0,-1.276246033E0,3.054398346E0,1.071771240E-1,3.312044705E0
4.056011083E0,-1.841171265E-1,3.649111633E0,-5.025050354E-1,3.688146708E0
4.065959083E0,2.060764618E0,4.764591980E0,-1.001716919E0,5.286920118E0
4.075906083E0,4.895270233E0,6.651867371E0,-9.581575012E-1,8.314389693E0
4.085853083E0,7.513176270E0,9.304800568E0,-8.219407654E-1,1.198760685E1
4.095801083E0,8.859027557E0,1.290885590E1,-6.393205261E-1,1.566938609E1
4.105748083E0,8.256979523E0,1.754740997E1,-1.203497314E-1,1.939339557E1
4.115695083E0,5.298681335E0,2.289863205E1,4.418811035E-1,2.350784194E1
4.125643083E0,1.550775146E-1,2.812980377E1,1.224453735E0,2.815686766E1
4.135590083E0,-3.565136261E0,3.263094360E1,2.254162445E0,3.290243039E1
4.145537083E0,-3.278781738E0,3.588906830E1,4.321962433E0,3.629676283E1
4.155485083E0,-2.564167786E-1,3.830444550E1,6.739285583E0,3.889362756E1
4.165432083E0,2.543660431E0,4.031910599E1,8.926088104E0,4.137360952E1
4.175379083E0,1.488953705E0,4.064617584E1,1.082144669E1,4.208838678E1
4.185327083E0,-1.419647827E0,3.964745270E1,1.188648193E1,4.141526721E1
4.195274083E0,-3.380719757E0,3.756109131E1,1.206835373E1,3.959684341E1
4.205221083E0,-3.077749786E0,3.479873566E1,1.078821579E1,3.656241440E1
4.215169083E0,-9.919871521E-1,3.148118454E1,7.890242157E0,3.247006221E1
4.225116083E0,1.599873047E0,2.826512238E1,4.412374420E0,2.865215148E1
4.235063083E0,3.845353546E0,2.525039154E1,1.098266144E0,2.556511696E1
4.245011083E0,5.286107483E0,2.219329880E1,-1.632804565E0,2.287250521E1
4.254958083E0,5.521867218E0,1.890179352E1,-3.614533539E0,2.002083086E1
4.264905083E0,4.702321472E0,1.551583466E1,-4.648732910E0,1.686605081E1
4.274853083E0,3.480113068E0,1.225681183E1,-4.834346924E0,1.362760189E1
4.284800083E0,2.695893860E0,9.156908112E0,-4.619693298E0,1.060463936E1
4.294747083E0,2.842139740E0,6.508315887E0,-3.907474365E0,8.105818275E0
4.304695083E0,3.331023102E0,4.265080719E0,-2.655926971E0,6.028314567E0
4.314642083E0,3.746259613E0,2.222877502E0,-1.294058990E0,4.544252870E0
4.324589083E0,3.873495026E0,4.037104797E-1,2.918930054E-2,3.894585714E0
4.334537083E0,3.444786530E0,-1.148411865E0,9.982740784E-1,3.765893676E0
4.344484083E0,2.624342651E0,-2.355651398E0,1.575174408E0,3.862310484E0
4.354431083E0,1.536854095E0,-3.276536407E0,1.940414886E0,4.106436566E0
4.364379083E0,6.927593994E-1,-3.900289307E0,2.157463531E0,4.510745077E0
4.374326083E0,4.924758911E-2,-4.295617218E0,2.046095123E0,4.758283079E0
4.384273083E0,-7.580236816E-1,-4.821024628E0,1.747765503E0,5.183778797E0
4.394221083E0,-8.084687805E-1,-5.343438263E0,1.419797516E0,5.587645231E0
4.404168083E0,-5.343887329E-2,-5.591322784E0,1.162033539E0,5.711047902E0
4.414115083E0,8.695417786E-1,-5.723198547E0,9.614506531E-1,5.868176197E0
4.424063083E0,1.409618683E0,-5.823040924E0,7.179071045E-1,6.034088253E0
4.434010083E0,1.399290161E0,-5.712870026E0,3.210823059E-1,5.890500041E0
4.443957083E0,8.918453979E-1,-5.371729431E0,-2.634521484E-2,5.445324542E0
4.453905083E0,2.733316040E-1,-4.897814941E0,-2.493814087E-1,4.911770806E0
4.463852083E0,8.457412720E-2,-4.267326050E0,-4.243675232E-1,4.289208807E0
4.473799083E0,1.700463867E-1,-3.500171356E0,-4.742138672E-1,3.536240106E0
4.483747083E0,5.224136353E-2,-2.663261719E0,-4.948709106E-1,2.709352203E0
4.493694083E0,-2.215393066E-1,-1.757195892E0,-5.459147644E-1,1.853332134E0
4.503641083E0,-6.373745728E-1,-9.171427917E-1,-6.518943787E-1,1.293198951E0
4.513589083E0,-1.019529877E0,-8.322692871E-2,-6.363267517E-1,1.204690677E0
4.523536083E0,-1.341809692E0,7.753875732E-1,-4.954696655E-1,1.627012394E0
4.533483083E0,-1.571432190E0,1.444196777E0,-1.380130005E-1,2.138726501E0
4.543431083E0,-1.655257874E0,1.887574768E0,3.951782227E-1,2.541452923E0
4.553378083E0,-1.654509430E0,2.185754700E0,9.202862549E-1,2.891686679E0
4.563325083E0,-1.616488495E0,2.508034515E0,1.448088684E0,3.316659919E0
4.573273083E0,-1.804497528E0,2.845732269E0,1.832040253E0,3.835462810E0
4.583220083E0,-2.075134735E0,3.083737335E0,1.892364807E0,4.170930913E0
4.593167083E0,-2.051334229E0,3.382965088E0,1.863923950E0,4.373401124E0
4.603115083E0,-1.406924286E0,3.899091797E0,1.744322662E0,4.497222958E0
4.613062083E0,-2.212399292E-1,4.574936371E0,1.619931335E0,4.858309113E0
4.623009083E0,1.164278870E0,5.443879395E0,1.569486237E0,5.783999930E0
4.632957083E0,2.499202881E0,6.677164764E0,1.377734985E0,7.261452886E0
4.642904083E0,3.567980347E0,8.409512329E0,1.278641052E0,9.224169573E0
4.652851083E0,4.050427094E0,1.043779449E1,1.401535492E0,1.128351963E1
4.662799083E0,3.711531830E0,1.262968643E1,1.461560669E0,1.324464448E1
4.672746083E0,2.565964050E0,1.494731689E1,1.361269226E0,1.522693363E1
4.682693083E0,6.514453125E-1,1.730281860E1,1.011895752E0,1.734462008E1
4.692641083E0,-8.782237244E-1,1.972223740E1,8.023315430E-2,1.974194424E1
4.702588083E0,-9.256750488E-1,2.246468445E1,-1.174457703E0,2.251440145E1
4.712535083E0,4.176315308E-1,2.558240112E1,-2.060165863E0,2.566861794E1
4.722483083E0,1.974543915E0,2.821632385E1,-2.265389099E0,2.837590075E1
4.732430083E0,2.976859589E0,3.037273956E1,-2.010918274E0,3.058445347E1
4.742377083E0,2.311942291E0,3.262301010E1,-8.295748901E-1,3.271534899E1
4.752325083E0,-3.653901672E-1,3.450968674E1,1.041833496E0,3.452734287E1
4.762272333E0,-3.855831757E0,3.570090958E1,2.648741913E0,3.600608583E1
4.772219333E0,-6.465504913E0,3.624802185E1,3.540437622E0,3.698995188E1
4.782167333E0,-7.622898102E0,3.600507706E1,4.145778809E0,3.703595052E1
4.792114333E0,-6.813231812E0,3.491908539E1,4.227209473E0,3.582780976E1
4.802061333E0,-5.122497711E0,3.306923218E1,3.691623230E0,3.366663306E1
4.812009333E0,-3.881578217E0,3.053380463E1,3.281775513E0,3.095399691E1
4.821956333E0,-3.266806641E0,2.742447052E1,3.135230255E0,2.779574208E1
4.831903333E0,-2.718496857E0,2.392953827E1,2.716401215E0,2.423616848E1
4.841851333E0,-1.778900757E0,2.031814819E1,2.094893646E0,2.050317569E1
4.851798333E0,-5.361849976E-1,1.695060104E1,1.655257874E0,1.703966692E1
4.861745333E0,6.279441833E-1,1.393137955E1,1.382824402E0,1.401391642E1
4.871693333E0,1.342707825E0,1.099164276E1,1.023870850E0,1.112058391E1
4.881640333E0,1.862427063E0,8.206384735E0,4.972659302E-1,8.429748418E0
4.891588333E0,2.483485565E0,5.762566681E0,-1.131646729E-1,6.275960608E0
4.901535333E0,3.046614532E0,3.720213776E0,-6.460565186E-1,4.851725432E0
4.911482333E0,3.263962555E0,2.055076447E0,-9.788145447E-1,3.979305049E0
4.921430333E0,3.002007294E0,6.065386963E-1,-8.557704163E-1,3.179981130E0
4.931377333E0,2.357597351E0,-4.644841003E-1,-3.936813354E-1,2.434952924E0
4.941324333E0,1.410367126E0,-1.226998444E0,2.514770508E-1,1.886239995E0
4.951272333E0,3.628454590E-1,-1.982028351E0,8.416996765E-1,2.183701343E0
4.961219333E0,-3.878434753E-1,-2.706372070E0,1.196012878E0,2.984178136E0
4.971166333E0,-3.679348755E-1,-3.226240997E0,1.440604248E0,3.552372115E0
4.981114333E0,1.842668152E-1,-3.503015442E0,1.670226746E0,3.885193538E0
4.991061333E0,8.234376526E-1,-3.762725372E0,1.790127411E0,4.247435455E0
5.001008333E0,1.263372803E0,-3.937262421E0,1.884431305E0,4.544142114E0
5.010956333E0,1.602866821E0,-3.959116974E0,1.979184265E0,4.707542843E0
5.020903333E0,1.662891998E0,-3.898493042E0,1.875000916E0,4.634553509E0
5.030850333E0,1.396146698E0,-3.730841675E0,1.583107910E0,4.286564576E0
5.040798333E0,9.286688232E-1,-3.444038086E0,1.181343384E0,3.757578517E0
5.050745333E0,6.601272583E-1,-3.086581421E0,6.418652344E-1,3.220984918E0
5.060692333E0,6.309379578E-1,-2.720293121E0,-3.278182983E-2,2.792696192E0
5.070640333E0,7.716453552E-1,-2.241438904E0,-5.596861267E-1,2.435720319E0
5.080587333E0,9.383985901E-1,-1.647174683E0,-8.032296753E-1,2.058872084E0
5.090534333E0,1.058448944E0,-1.081501007E0,-8.779243469E-1,1.749488427E0
5.100482333E0,1.049916687E0,-5.858816528E-1,-7.453001404E-1,1.414586392E0
5.110429333E0,7.614665222E-1,-2.383044434E-1,-4.397854614E-1,9.110606589E-1
5.120376333E0,4.123924255E-1,2.116598511E-1,-1.942959595E-1,5.026115051E-1
5.130324333E0,1.065783691E-1,7.003935242E-1,-1.317260742E-2,7.085785454E-1
5.140271333E0,-9.220825195E-2,1.206042023E0,2.222877502E-1,1.229817696E0
5.150218333E0,-3.287164307E-1,1.701212311E0,5.647755432E-1,1.822402050E0
5.160166333E0,-5.580395508E-1,2.240989838E0,9.427395630E-1,2.494434099E0
5.170113333E0,-8.092172241E-1,2.804567871E0,1.128054199E0,3.129367306E0
5.180060333E0,-1.100511475E0,3.270698547E0,9.758207703E-1,3.586198638E0
5.190008333E0,-1.453776855E0,3.667972412E0,6.358776855E-1,3.996477098E0
5.199955333E0,-1.679507446E0,4.334236908E0,2.288740540E-1,4.653894946E0
5.209902333E0,-1.203197937E0,5.632487183E0,-3.803590393E-1,5.772111411E0
5.219850333E0,2.255809021E-1,7.550598450E0,-1.060544586E0,7.628052078E0
5.229797333E0,1.997446289E0,9.876461792E0,-1.363963623E0,1.016831776E1
5.239744333E0,3.230132904E0,1.266157013E1,-1.166823578E0,1.311909273E1
5.249692333E0,3.686384125E0,1.588541611E1,-5.881269836E-1,1.631814224E1
5.259639333E0,3.814517670E0,1.978944763E1,-1.167572021E-1,2.015406696E1
5.269586333E0,2.538421326E0,2.372446472E1,2.772235107E-1,2.386148910E1
5.279534333E0,-1.118324432E0,2.672677139E1,2.059716797E-1,2.675095107E1
5.289481333E0,-5.061424713E0,2.844789230E1,-9.798623657E-1,2.891125606E1
5.299428333E0,-6.179749146E0,2.949825806E1,-2.004331970E0,3.020519615E1
5.309376333E0,-3.914360046E0,2.945664459E1,-2.053579559E0,2.978646193E1
5.319323333E0,-4.095483398E-1,2.827949249E1,-2.118694153E0,2.836170465E1
5.329270333E0,2.837798767E0,2.732088593E1,-2.083816681E0,2.754680021E1
5.339218333E0,5.223687286E0,2.721056534E1,-9.851014709E-1,2.772493823E1
5.349165333E0,6.434968414E0,2.765753586E1,5.818400574E-1,2.840222960E1
5.359112333E0,5.989644470E0,2.800301743E1,2.021246796E0,2.870766909E1
5.369060333E0,4.771477661E0,2.800406525E1,2.943479004E0,2.855973981E1
5.379007333E0,3.828887787E0,2.777309555E1,3.061284027E0,2.820242327E1
5.388954333E0,3.757785645E0,2.764002228E1,2.442021790E0,2.800098668E1
5.398902333E0,3.815116425E0,2.712209930E1,1.135388947E0,2.741263380E1
5.408849333E0,3.125201111E0,2.592174545E1,-3.960763550E-1,2.611246150E1
5.418796333E0,1.956431580E0,2.422771820E1,-1.969005432E0,2.438620381E1
5.428744333E0,5.993536377E-1,2.192520630E1,-3.511398010E0,2.221269484E1
5.438691333E0,-2.480342102E-1,1.935774536E1,-4.670138397E0,1.991466844E1
5.448639333E0,-4.444258118E-1,1.668864578E1,-5.326523438E0,1.752370578E1
5.458586333E0,-2.216889954E-1,1.381237701E1,-5.290897522E0,1.479271785E1
5.468533333E0,1.722917175E-1,1.104523132E1,-4.616400146E0,1.197238363E1
5.478481333E0,5.167254639E-1,8.525371399E0,-3.685336304E0,9.302186107E0
5.488428333E0,6.477030945E-1,6.198759613E0,-2.789299622E0,6.828201258E0
5.498375333E0,6.021977234E-1,4.087699585E0,-1.931134186E0,4.560834270E0
5.508323333E0,4.159849548E-1,2.250569916E0,-1.012644196E0,2.502709870E0
5.518270333E0,7.140151978E-2,5.845344543E-1,-3.652404785E-2,5.900107723E-1
5.528217333E0,-2.180964661E-1,-8.475375366E-1,8.381071472E-1,1.211738229E0
5.538165333E0,-2.890489197E-1,-2.053878937E0,1.507066040E0,2.563828390E0
5.548112333E0,-3.264710999E-1,-3.195554810E0,2.082768860E0,3.828326011E0
5.558059333E0,-1.113684082E-1,-4.048181763E0,2.576142883E0,4.799655265E0
5.568007333E0,5.924679565E-1,-4.430187378E0,3.007695465E0,5.387375102E0
5.577954333E0,1.692230988E0,-4.430037689E0,3.071612549E0,5.650104715E0
5.587901333E0,2.532284088E0,-4.391118622E0,2.644999695E0,5.717552697E0
5.597849333E0,2.816243591E0,-4.382885742E0,1.985920258E0,5.575373948E0
5.607796333E0,2.783611450E0,-4.136198730E0,1.249152374E0,5.139748466E0
5.617743333E0,2.367476807E0,-3.742068329E0,4.363426208E-1,4.449541178E0
5.627691333E0,1.744771729E0,-3.387006683E0,-1.628613281E-1,3.813471708E0
5.637638333E0,1.243164825E0,-2.937042389E0,-6.885681152E-1,3.262790650E0
5.647585333E0,8.443940735E-1,-2.507286072E0,-1.189426575E0,2.900727559E0
5.657533333E0,5.372328186E-1,-2.085612946E0,-1.534459076E0,2.644421509E0
5.667480333E0,3.968247986E-1,-1.686991882E0,-1.628164215E0,2.377883564E0
5.677427333E0,4.174818420E-1,-1.370849304E0,-1.520837402E0,2.089608889E0
5.687375333E0,5.944139099E-1,-1.077758789E0,-1.298399963E0,1.789059632E0
5.697322333E0,9.274713135E-1,-7.261399841E-1,-1.023721161E0,1.560604796E0
5.707269333E0,1.150357819E0,-4.001179504E-1,-7.536827087E-1,1.432290163E0
5.717217333E0,1.094074860E0,-1.061293030E-1,-5.095404053E-1,1.211567023E0
5.727164333E0,6.412664795E-1,1.044827271E-1,-1.823208618E-1,6.748186680E-1
5.737111333E0,-2.245330811E-3,3.445834351E-1,2.874023438E-1,4.487124830E-1
5.747059333E0,-6.459068298E-1,7.108717346E-1,7.059320068E-1,1.192004301E0
5.757006708E0,-1.187480621E0,1.071172485E0,8.861572266E-1,1.828331302E0
5.766953708E0,-1.615141296E0,1.350641327E0,8.408015442E-1,2.267126075E0
5.776901708E0,-1.789528656E0,1.629062347E0,6.110293579E-1,2.495919434E0
5.786848708E0,-1.594933319E0,1.931433563E0,5.068460083E-1,2.555609668E0
5.796795708E0,-1.328337708E0,2.318079529E0,5.643264771E-1,2.730647934E0
5.806743708E0,-1.106349335E0,2.857557678E0,7.238946533E-1,3.148597816E0
5.816690708E0,-5.698649597E-1,3.718267822E0,8.285270691E-1,3.851846151E0
5.826638708E0,2.647993469E-1,5.000950470E0,8.210426331E-1,5.074813819E0
5.836585708E0,1.244661713E0,6.617289276E0,6.968009949E-1,6.769285913E0
5.846532708E0,2.814746704E0,8.692873077E0,4.147874451E-1,9.146632712E0
5.856480708E0,4.978646851E0,1.147483795E1,-3.517684937E-2,1.250839989E1
5.866427708E0,7.596253510E0,1.537497757E1,-5.819897461E-1,1.715901264E1
5.876374708E0,9.378896484E0,2.053699310E1,-1.403032379E0,2.262079320E1
5.886322708E0,7.597151642E0,2.540277466E1,-2.541864166E0,2.663604225E1
5.896269708E0,3.511847076E0,2.962758911E1,-4.810396729E0,3.022030812E1
5.906216708E0,-5.285508728E-1,3.389820831E1,-7.031627655E0,3.462385999E1
5.916164708E0,-1.921853485E0,3.795312607E1,-7.626490631E0,3.875947186E1
5.926111708E0,-5.704637146E-1,4.134073151E1,-7.561376038E0,4.203041658E1
5.936058708E0,-3.950285339E-1,4.287743591E1,-5.362748108E0,4.321330380E1
5.946006708E0,-1.866468658E0,4.344400772E1,-3.270698547E-1,4.348531346E1
5.955953708E0,-3.263064423E0,4.297593109E1,5.063670044E0,4.339607122E1
5.965900708E0,-3.367996216E0,4.109793640E1,1.018886215E1,4.247583651E1
5.975848708E0,-2.168690186E0,3.811239487E1,1.459045898E1,4.086733846E1
5.985795708E0,-4.787045288E-1,3.421629684E1,1.709295502E1,3.825118611E1
5.995742708E0,8.271798706E-1,2.980691620E1,1.730042358E1,3.447377461E1
6.005690708E0,1.721270599E0,2.514111877E1,1.519669830E1,2.942750864E1
6.015637708E0,2.119592285E0,2.055315948E1,1.127500351E1,2.353828244E1
6.025584708E0,2.173629913E0,1.636456970E1,6.795718231E0,1.785232743E1
6.035532708E0,1.912273407E0,1.271066803E1,2.468816071E0,1.308865632E1
6.045479708E0,1.770218811E0,9.415869598E0,-1.140628052E0,9.648487306E0
6.055426708E0,1.787283325E0,6.686894531E0,-3.356320496E0,7.692452627E0
6.065374708E0,1.750908966E0,4.340074768E0,-4.215982819E0,6.298923902E0
6.075321708E0,1.463656311E0,2.098635864E0,-3.783382416E0,4.567334539E0
6.085268708E0,1.303489380E0,2.627037048E-1,-2.511477356E0,2.841762888E0
6.095216708E0,1.181044006E0,-1.279988251E0,-5.234614563E-1,1.818583725E0
6.105163708E0,9.177415466E-1,-2.783611450E0,1.365310822E0,3.233390773E0
6.115110708E0,5.788462830E-1,-4.129762115E0,2.784509583E0,5.014328645E0
6.125058708E0,3.424877930E-1,-5.083279266E0,3.893852692E0,6.412418793E0
6.135005708E0,1.172062683E-1,-5.631139984E0,4.650678864E0,7.304265105E0
6.144952708E0,8.173004150E-2,-5.849086761E0,4.947810974E0,7.661548745E0
6.154900708E0,5.102888489E-1,-5.838159485E0,4.514162750E0,7.397443222E0
6.164847708E0,9.671388245E-1,-5.935756531E0,3.555556183E0,6.986454241E0
6.174795708E0,1.378184052E0,-5.886658630E0,2.415826263E0,6.510634197E0
6.184742708E0,1.696122894E0,-5.614823914E0,1.301992493E0,6.008183162E0
6.194689708E0,1.755848694E0,-5.259911957E0,2.811154175E-1,5.552360246E0
6.204637708E0,1.648372192E0,-4.819677429E0,-6.339317322E-1,5.133058625E0
6.214584708E0,1.495090942E0,-4.222718811E0,-1.430126038E0,4.702330440E0
6.224531708E0,1.049766998E0,-3.651207275E0,-1.970053253E0,4.279536790E0
6.234479708E0,5.596861267E-1,-3.098107452E0,-2.288141785E0,3.891928979E0
6.244426708E0,2.900967407E-1,-2.477048950E0,-2.237996063E0,3.350903460E0
6.254373708E0,9.879455566E-2,-1.816921692E0,-1.934726715E0,2.655961645E0
6.264321708E0,9.116043091E-2,-1.135538635E0,-1.529669037E0,1.907261277E0
6.274268708E0,-2.200424194E-2,-5.298980713E-1,-1.021625519E0,1.151084208E0
6.284215708E0,-3.347039795E-1,-3.682342529E-2,-4.902305603E-1,5.947341598E-1
6.294163708E0,-7.370672607E-1,3.838018799E-1,-1.124162292E-1,8.385758394E-1
6.304110708E0,-9.029223633E-1,7.664062500E-1,1.775308228E-1,1.197566085E0
6.314057708E0,-1.016386414E0,1.057550812E0,3.400927734E-1,1.505695240E0
6.324005708E0,-1.325643311E0,1.199455719E0,3.760180664E-1,1.826858997E0
6.333952708E0,-1.531016235E0,1.319955139E0,3.116519165E-1,2.045340852E0
6.343899708E0,-1.494192810E0,1.479223938E0,2.115101624E-1,2.113161650E0
6.353847708E0,-1.421294403E0,1.533411255E0,1.547781372E-1,2.096517142E0
6.363794708E0,-1.404828644E0,1.616787872E0,-8.532257080E-3,2.141872858E0
6.373741708E0,-1.523232422E0,1.752854919E0,-1.387614441E-1,2.326368870E0
6.383689708E0,-1.785187683E0,1.913171539E0,-1.898052979E-1,2.623575128E0
6.393636708E0,-1.779050446E0,2.270777893E0,-2.498304749E-1,2.895490976E0
6.403583708E0,-1.201701050E0,2.787952423E0,-3.350033569E-1,3.054339761E0
6.413531708E0,-1.413061523E-1,3.568728790E0,-3.643423462E-1,3.590060996E0
6.423478708E0,1.606609039E0,4.771327972E0,-1.643582153E-1,5.037239010E0
6.433425708E0,3.645070038E0,6.626869354E0,1.130149841E-1,7.564040283E0
6.443373708E0,5.861810303E0,9.219328308E0,1.658551025E-1,1.092631422E1
6.453320708E0,9.142987061E0,1.319850357E1,-2.303709412E-1,1.605763929E1
6.463268708E0,1.173484726E1,1.859762604E1,-5.945635986E-1,2.199845086E1
6.473215708E0,1.040471329E1,2.345682129E1,-9.994715881E-1,2.568033230E1
6.483162708E0,5.703739014E0,2.711671051E1,-1.628613281E0,2.775789994E1
6.493110708E0,1.830693054E0,3.132236481E1,-2.283651123E0,3.145881493E1
6.503057708E0,-2.261796570E-1,3.489004578E1,-3.779640198E-1,3.489282603E1
6.513004708E0,1.240470428E0,3.670202774E1,2.785557404E0,3.682847997E1
6.522952708E0,3.214265900E0,3.786301346E1,5.290149078E0,3.836567438E1
6.532899708E0,2.315834198E0,3.818738892E1,8.598868561E0,3.921199180E1
6.542846708E0,-5.444178772E-1,3.798875198E1,1.161090500E1,3.972725491E1
6.552794708E0,-2.579436035E0,3.657598984E1,1.305480240E1,3.892151575E1
6.562741708E0,-3.046464844E0,3.428904556E1,1.323263260E1,3.687983404E1
6.572688708E0,-2.381098480E0,3.203832596E1,1.283251465E1,3.459475961E1
6.582636708E0,-1.037342834E0,2.964704865E1,1.194201645E1,3.197866993E1
6.592583708E0,1.239422607E-1,2.702809479E1,1.064256866E1,2.904819336E1
6.602530708E0,1.171014862E0,2.455658432E1,8.866362305E0,2.613445025E1
6.612478708E0,1.309177551E0,2.170022415E1,6.446195068E0,2.267525314E1
6.622425708E0,9.310638428E-1,1.865390900E1,3.805985413E0,1.906097389E1
6.632372708E0,7.011419678E-1,1.575638443E1,1.470392303E0,1.584036944E1
6.642320708E0,7.457492065E-1,1.290376648E1,-2.058219910E-1,1.292693676E1
6.652267708E0,1.174607391E0,9.983938293E0,-1.404229889E0,1.015039841E1
6.662214708E0,1.910776520E0,7.253166962E0,-2.123184814E0,7.795345511E0
6.672162708E0,2.442021790E0,4.750072174E0,-2.393073578E0,5.852645319E0
6.682109708E0,2.525099030E0,2.480641479E0,-2.237247620E0,4.187479453E0
6.692056708E0,2.004331970E0,5.905220032E-1,-1.541195068E0,2.596410045E0
6.702004708E0,7.979905701E-1,-9.313632202E-1,-4.331991577E-1,1.300725916E0
6.711951708E0,-2.535726929E-1,-2.086211700E0,5.101391602E-1,2.162595739E0
6.721898708E0,-6.888674927E-1,-2.941233673E0,1.052311707E0,3.198867592E0
6.731846708E0,-5.966592407E-1,-3.538341980E0,1.236877899E0,3.795488526E0
6.741793708E0,-1.297801208E-1,-3.933370514E0,1.081650696E0,4.081447624E0
6.751741708E0,7.268884277E-1,-4.175117798E0,5.950126648E-1,4.279487759E0
6.761688625E0,1.447040863E0,-4.407734070E0,-8.981323242E-3,4.639194710E0
6.771635625E0,1.466949463E0,-4.618645477E0,-4.703219604E-1,4.868781112E0
6.781583625E0,1.020128632E0,-4.592899017E0,-6.650669861E-1,4.751599510E0
6.791530625E0,9.701325989E-1,-4.106710052E0,-6.457571411E-1,4.268867180E0
6.801477625E0,1.033600616E0,-3.496728516E0,-5.676196289E-1,3.690207662E0
6.811425625E0,8.985813904E-1,-3.073558502E0,-6.349795532E-1,3.264568795E0
6.821372625E0,5.788462830E-1,-2.722538452E0,-8.295748901E-1,2.904388600E0
6.831319625E0,2.192939758E-1,-2.359842682E0,-1.004561005E0,2.574119295E0
6.841267625E0,-2.634521484E-2,-2.018402710E0,-9.577084351E-1,2.234244619E0
6.851214625E0,-2.779719543E-1,-1.575174408E0,-7.890092468E-1,1.783529763E0
6.861161625E0,-3.498225403E-1,-1.126407623E0,-6.020480347E-1,1.324247628E0
6.871109625E0,-2.802172852E-1,-7.466473389E-1,-4.809498596E-1,9.312984178E-1
6.881056625E0,-2.939886475E-1,-5.710624695E-1,-4.400848389E-1,7.785989560E-1
6.891003625E0,-2.357597351E-1,-4.980143738E-1,-3.496728516E-1,6.525887467E-1
6.900951625E0,-1.772314453E-1,-3.974235535E-1,-2.122586060E-1,4.841592526E-1
6.910898625E0,-1.615141296E-1,-3.222798157E-1,-6.286926270E-3,3.605421184E-1
6.920845625E0,-1.375639343E-1,-2.553689575E-1,2.049238586E-1,3.551491635E-1
6.930793625E0,-1.321751404E-1,-1.748364258E-1,2.800675964E-1,3.556345063E-1
6.940740625E0,-2.284249878E-1,-2.918930054E-2,2.523751831E-1,3.416478060E-1
6.950687625E0,-3.248245239E-1,1.884580994E-1,1.926493835E-1,4.220677807E-1
6.960635625E0,-4.177812195E-1,5.583389282E-1,3.372486877E-1,7.746096975E-1
6.970582625E0,-5.770500183E-1,1.169817352E0,6.065386963E-1,1.438523045E0
6.980529625E0,-7.134164429E-1,1.851050720E0,7.382647705E-1,2.116692387E0
6.990477625E0,-6.358776855E-1,2.614912262E0,6.638694763E-1,2.771791704E0
7.000424625E0,-2.700384521E-1,3.448977814E0,3.484753418E-1,3.477039515E0
7.010372625E0,5.599855042E-1,4.527335358E0,-4.550537109E-2,4.562063124E0
7.020319625E0,1.871109009E0,6.196663971E0,-3.552113342E-1,6.482736180E0
7.030266625E0,3.700005798E0,9.028325500E0,-7.882608032E-1,9.788874263E0
7.040214625E0,6.464157715E0,1.373094635E1,-1.481469269E0,1.524857285E1
7.050161625E0,9.785151672E0,2.074146790E1,-2.821482697E0,2.310667541E1
7.060108625E0,1.013841705E1,2.768193512E1,-4.568649445E0,2.983202290E1
7.070056625E0,5.621410217E0,3.204431351E1,-5.524112549E0,3.299930454E1
7.080003625E0,-6.538403320E-1,3.643004333E1,-4.643044739E0,3.673055171E1
7.089950625E0,-6.202052765E0,4.085244690E1,-9.116043091E-1,4.133060487E1
7.099898625E0,-7.400460663E0,4.295168152E1,4.843178558E0,4.385282365E1
7.109845625E0,-5.241949310E0,4.330075562E1,9.520801392E0,4.464391480E1
7.119792625E0,-4.073628845E0,4.194262985E1,1.316557205E1,4.414873654E1
7.129740625E0,-4.456981659E0,4.007586182E1,1.684971085E1,4.370185513E1
7.139687625E0,-4.998405762E0,3.720632904E1,1.899519928E1,4.207270584E1
7.149634625E0,-4.384981384E0,3.346006943E1,1.889400970E1,3.867541739E1
7.159582625E0,-3.461252289E0,2.964764740E1,1.788944870E1,3.479936262E1
7.169529625E0,-1.867815857E0,2.613774628E1,1.654539368E1,3.099065292E1
7.179476625E0,9.222322083E-1,2.299862411E1,1.424482773E1,2.706847503E1
7.189424625E0,3.532055054E0,2.018492523E1,1.109492798E1,2.330244722E1
7.199371625E0,5.028343506E0,1.760653702E1,7.711364136E0,1.986805277E1
7.209318625E0,5.274880829E0,1.533800446E1,4.435576172E0,1.681526344E1
7.219266625E0,4.471052399E0,1.318907318E1,1.713786163E0,1.403135859E1
7.229213625E0,3.332969055E0,1.085557571E1,-4.149371338E-1,1.136329088E1
7.239161625E0,2.404300232E0,8.548124084E0,-1.537153473E0,9.011876928E0
7.249108625E0,1.999392242E0,6.585405579E0,-1.580413513E0,7.061362676E0
7.259055625E0,2.036664734E0,4.862937469E0,-9.096583557E-1,5.350106765E0
7.269003625E0,2.114951935E0,3.060685272E0,-2.773731995E-1,3.730650334E0
7.278950625E0,2.019300842E0,1.179846497E0,4.580474854E-2,2.339169024E0
7.288897625E0,1.805096283E0,-5.372328186E-1,1.993853760E-1,1.893870698E0
7.298845625E0,1.411864014E0,-2.015259247E0,1.793270874E-1,2.467141672E0
7.308792625E0,1.215023346E0,-3.171454926E0,-1.284329224E-1,3.398661956E0
7.318739625E0,1.172960815E0,-4.023632812E0,-7.310797119E-1,4.254401912E0
7.328687625E0,9.951306152E-1,-4.803960114E0,-1.575773163E0,5.152803002E0
7.338634625E0,9.386979675E-1,-5.478158112E0,-2.453248444E0,6.075343455E0
7.348581625E0,1.293909302E0,-5.728287964E0,-3.190016327E0,6.683089738E0
7.358529625E0,1.870360565E0,-5.590873718E0,-3.764970703E0,6.995078411E0
7.368476625E0,2.336790619E0,-5.391039276E0,-4.122127991E0,7.177453173E0
7.378423625E0,2.503843231E0,-5.229824524E0,-4.185146942E0,7.150926542E0
7.388371625E0,2.322570190E0,-4.962330780E0,-4.067341919E0,6.823659527E0
7.398318625E0,1.817370758E0,-4.698728943E0,-3.897145844E0,6.369351292E0
7.408265625E0,1.143023071E0,-4.472549286E0,-3.795207825E0,5.976102517E0
7.418213625E0,2.417472839E-1,-4.264332275E0,-3.569028168E0,5.566051883E0
7.428160625E0,-7.674540710E-1,-4.117337952E0,-3.080743561E0,5.199272877E0
7.438107625E0,-1.285077667E0,-3.801644440E0,-2.020797729E0,4.493055588E0
7.448055625E0,-1.256337433E0,-3.036435699E0,-5.966592407E-1,3.339809538E0
7.458002625E0,-1.020877075E0,-2.097588043E0,4.611909485E-1,2.377974494E0
7.467950625E0,-7.632627869E-1,-1.366508331E0,9.346563721E-1,1.823046252E0
7.477897625E0,-5.107379150E-1,-9.238787842E-1,9.792636108E-1,1.439917513E0
7.487844625E0,-4.071533203E-1,-6.245013428E-1,7.544311523E-1,1.060632885E0
7.497792625E0,-3.950285339E-1,-3.749702454E-1,2.622546387E-1,6.045061811E-1
7.507739625E0,-5.301974487E-1,-1.678010559E-1,-4.435276794E-1,7.113250533E-1
7.517686625E0,-8.759783936E-1,-1.496887207E-2,-1.127006378E0,1.427482255E0
7.527634625E0,-1.828896790E0,-1.453477478E-1,-1.214574280E0,2.200268192E0
7.537581625E0,-3.041375427E0,-4.113446045E-1,-1.619631958E-1,3.073337103E0
7.547528625E0,-3.290457458E0,1.287322998E-2,1.826501770E0,3.763427257E0
7.557476625E0,-2.961291962E0,8.987310791E-1,3.359463959E0,4.567599558E0
7.567423625E0,-2.524799652E0,1.592538300E0,4.103865967E0,5.074692837E0
7.577370625E0,-2.016157379E0,1.922152863E0,4.463418274E0,5.261336797E0
7.587318625E0,-1.624721375E0,2.151775360E0,4.773573303E0,5.482413595E0
7.597265625E0,-1.351539459E0,2.425106964E0,5.153034210E0,5.853337874E0
7.607212625E0,-7.207511902E-1,3.030298462E0,5.849386139E0,6.627028689E0
7.617160625E0,2.665956116E-1,4.600982208E0,6.733148346E0,8.159374801E0
7.627107625E0,1.206191711E0,7.087162170E0,7.557334442E0,1.043053546E1
7.637054625E0,1.779948578E0,9.970615997E0,7.925868073E0,1.286082365E1
7.647002625E0,2.891836395E0,1.320718552E1,7.736960907E0,1.557732426E1
7.656949625E0,4.978796539E0,1.746612900E1,8.037236481E0,1.986079675E1
7.666897625E0,5.925727386E0,2.237247620E1,1.000414627E1,2.521358520E1
7.676844625E0,4.506229248E0,2.591950012E1,1.238195160E1,2.907643916E1
7.686791625E0,1.473685455E0,2.772100388E1,1.445334412E1,3.129736348E1
7.696739625E0,-1.356628876E0,2.871897858E1,1.613539627E1,3.296924605E1
7.706686625E0,-2.243534546E0,2.862108215E1,1.810829361E1,3.394274721E1
7.716633625E0,-1.407223663E0,2.812231934E1,2.065300186E1,3.491978822E1
7.726581625E0,-1.817370758E0,2.743554749E1,2.480012787E1,3.702780637E1
7.736528625E0,-3.178041229E0,2.673051361E1,2.983984772E1,4.018752065E1
7.746475625E0,-4.624633026E0,2.536116119E1,3.283032898E1,4.174213972E1
7.756423625E0,-4.623734894E0,2.334530319E1,3.292568069E1,4.062613143E1
7.766370000E0,-2.936293945E0,2.101435043E1,3.097074600E1,3.754213439E1
7.776317000E0,-4.370910645E-1,1.888098679E1,2.740486130E1,3.328226455E1
7.786265000E0,2.023941193E0,1.703831863E1,2.291255310E1,2.862491449E1
7.796212000E0,2.923570404E0,1.505793686E1,1.825543762E1,2.384428085E1
7.806159000E0,2.469414825E0,1.299103500E1,1.379636032E1,1.911032596E1
7.816107000E0,1.323547668E0,1.080063995E1,1.007809250E1,1.483150533E1
7.826054000E0,3.486250305E-1,8.568930817E0,7.655230865E0,1.149568068E1
7.836001000E0,4.770579529E-1,6.773863678E0,6.265520782E0,9.239565146E0
7.845949000E0,1.377285919E0,5.316344604E0,4.937482452E0,7.385063942E0
7.855896000E0,2.358196106E0,3.783681793E0,3.327729950E0,5.563373384E0
7.865844000E0,3.224444733E0,2.236948242E0,1.799707489E0,4.317398327E0
7.875791000E0,3.651356964E0,8.973838806E-1,4.379891968E-1,3.785437893E0
7.885738000E0,3.288361816E0,-2.222877502E-1,-6.801855469E-1,3.365321331E0
7.895686000E0,2.395318909E0,-1.040935364E0,-1.635798340E0,3.081709804E0
7.905633000E0,1.585802307E0,-1.722617798E0,-2.117496643E0,3.156892945E0
7.915580000E0,5.551954651E-1,-2.336042175E0,-1.883832550E0,3.051910897E0
7.925528000E0,-5.367837524E-1,-2.712808685E0,-1.263522491E0,3.040387614E0
7.935475000E0,-7.188052368E-1,-2.640359344E0,-5.980064392E-1,2.801033762E0
7.945422000E0,-1.893562317E-1,-2.627037048E0,-4.198768616E-1,2.667110049E0
7.955370000E0,8.181985474E-1,-2.833457794E0,-9.168434143E-1,3.088451680E0
7.965317000E0,2.037113800E0,-2.791994019E0,-1.579216003E0,3.799866632E0
7.975264000E0,2.972069550E0,-2.443219299E0,-2.208058319E0,4.435993631E0
7.985212000E0,3.258573761E0,-2.187251587E0,-2.662662964E0,4.742588588E0
7.995159000E0,2.007774811E0,-2.358495483E0,-2.772235107E0,4.156795416E0
8.005106000E0,-9.681866455E-1,-2.457140350E0,-2.290686493E0,3.496021838E0
8.015054000E0,-3.472329254E0,-2.115251312E0,-1.198707275E0,4.238898170E0
8.025001000E0,-4.270469513E0,-1.431622925E0,-4.146377563E-2,4.504239481E0
8.034949000E0,-3.274889832E0,-7.038363647E-1,5.881269836E-1,3.400909053E0
8.044896000E0,-1.440753937E0,-5.177732849E-1,4.846920776E-1,1.605860359E0
8.054843000E0,-2.456391907E-1,-7.604187012E-1,3.933819580E-1,8.906876995E-1
8.064791000E0,1.544787598E-1,-8.833131409E-1,7.761360168E-1,1.185956537E0
8.074738000E0,1.582209778E-1,-7.652087402E-1,1.440604248E0,1.638877327E0
8.084685000E0,-1.697470093E-1,-4.309538269E-1,2.118694153E0,2.168732386E0
8.094633000E0,-7.628137207E-1,-7.484436035E-2,2.598296814E0,2.708991101E0
8.104580000E0,-1.380429382E0,1.830693054E-1,2.690355377E0,3.029374804E0
8.114527000E0,-1.679208069E0,4.430786133E-1,2.723885651E0,3.230419699E0
8.124475000E0,-1.442250824E0,7.949967957E-1,3.093616791E0,3.504650081E0
8.134422000E0,-9.812095642E-1,1.132844238E0,3.666924591E0,3.961368985E0
8.144369000E0,-5.221142578E-1,1.424437866E0,4.397405548E0,4.651752582E0
8.154317000E0,-2.454895020E-1,1.773362274E0,5.114115143E0,5.418417901E0
8.164264000E0,-3.200344849E-1,2.287992096E0,5.524561615E0,5.988164238E0
8.174211000E0,-6.851252747E-1,2.928959198E0,5.849086761E0,6.577234568E0
8.184159000E0,-8.788224792E-1,3.789819031E0,6.653064880E0,7.707031175E0
8.194106000E0,-8.095166016E-1,5.033133545E0,8.117769012E0,9.585714587E0
8.204054000E0,-4.520599365E-1,6.670279083E0,9.955497437E0,1.199203529E1
8.214001000E0,7.649093628E-2,8.500373383E0,1.198078583E1,1.469018133E1
8.223948000E0,9.249266052E-1,1.054152878E1,1.381372421E1,1.740110039E1
8.233896000E0,1.811383209E0,1.284404068E1,1.567390594E1,2.034506863E1
8.243843000E0,2.008074188E0,1.513263153E1,1.752375916E1,2.324028902E1
8.253790000E0,-6.167175293E-2,1.626802048E1,1.988614655E1,2.569262770E1
8.263738000E0,-2.790347443E0,1.676124481E1,2.322091187E1,2.877387903E1
8.273685000E0,-3.406166840E0,1.763632507E1,2.569332047E1,3.134946014E1
8.283632000E0,-2.408491516E0,1.733066071E1,2.713212845E1,3.228474912E1
8.293580000E0,-3.619473267E-1,1.647533936E1,2.744153503E1,3.200946200E1
8.303527000E0,1.147064667E0,1.620889343E1,2.746623367E1,3.191297504E1
8.313474000E0,2.478845215E-1,1.559561874E1,2.807711334E1,3.211867158E1
8.323422000E0,-1.227447510E0,1.487441849E1,2.831871094E1,3.201100345E1
8.333369000E0,-1.113235016E0,1.397374146E1,2.706416977E1,3.047907524E1
8.343316000E0,-2.137554932E-1,1.257639725E1,2.502630753E1,2.800941855E1
8.353264000E0,1.170565796E0,1.132215546E1,2.288396255E1,2.555850486E1
8.363211000E0,2.420466614E0,1.063044388E1,2.084759720E1,2.352631090E1
8.373158000E0,2.336940308E0,9.840985565E0,1.882799698E1,2.137287433E1
8.383106000E0,1.518592072E0,8.909472656E0,1.663625473E1,1.893277043E1
8.393053000E0,1.153201904E0,8.278235321E0,1.437011719E1,1.662405855E1
8.403001000E0,9.791139221E-1,7.722441101E0,1.229902405E1,1.455543724E1
8.412948000E0,8.259823608E-1,6.990912323E0,1.057760376E1,1.270593575E1
8.422895000E0,7.620652771E-1,6.233038330E0,9.129066010E0,1.108022367E1
8.432843000E0,6.500981140E-1,5.441184998E0,7.624245300E0,9.389261852E0
8.442790000E0,3.197351074E-1,4.574337616E0,6.117927704E0,7.645641540E0
8.452737000E0,-2.137554932E-1,3.730392609E0,4.524491272E0,5.867924820E0
8.462685000E0,-9.651928711E-1,2.954106903E0,3.010689240E0,4.326961355E0
8.472632000E0,-1.685494995E0,2.225871277E0,1.910926208E0,3.383346759E0
8.482579000E0,-2.120789795E0,1.484762421E0,1.211430817E0,2.858292047E0
8.492527000E0,-1.993105316E0,8.397537231E-1,6.888674927E-1,2.269844387E0
8.502474000E0,-1.325643311E0,4.017645264E-1,3.481759644E-1,1.428275682E0
8.512421000E0,-3.674858093E-1,1.371148682E-1,-8.128097534E-2,4.005657300E-1
8.522369000E0,4.616400146E-1,-1.939965820E-1,-4.769082642E-1,6.915111491E-1
8.532316000E0,1.008003845E0,-6.411167908E-1,-6.150709534E-1,1.343657236E0
8.542263000E0,1.105900269E0,-1.097368011E0,-7.521858215E-1,1.730033372E0
8.552211000E0,7.455995178E-1,-1.390757904E0,-6.301895142E-1,1.699195401E0
8.562158000E0,3.083587646E-1,-1.359472961E0,-4.161346436E-1,1.454792048E0
8.572106000E0,-1.136137390E-1,-1.254541168E0,-2.637515259E-1,1.286991256E0
8.582053000E0,-3.574566650E-1,-9.755213928E-1,-5.411247253E-1,1.171423588E0
8.592000000E0,-5.287005615E-1,-7.997868347E-1,-1.589694214E0,1.856424240E0
8.601948000E0,-7.351213074E-1,-8.177494812E-1,-2.422113190E0,2.660028168E0
8.611895000E0,-6.511459351E-1,-7.259902954E-1,-2.727927246E0,2.897005350E0
8.621842000E0,-4.297563171E-1,-4.918771362E-1,-2.714155884E0,2.791643919E0
8.631790000E0,-2.914439392E-1,-3.761677551E-1,-2.397264862E0,2.444037759E0
8.641737000E0,-1.805245972E-1,-2.613565063E-1,-1.678309937E0,1.708104387E0
8.651684000E0,-1.541793823E-2,-1.948947144E-1,-7.494914246E-1,7.745702408E-1
8.661632000E0,1.645079041E-1,-2.204914856E-1,9.894424438E-2,2.923513455E-1
8.671579000E0,2.761756897E-1,-2.652484131E-1,8.836125183E-1,9.630165184E-1
8.681526000E0,2.562670898E-1,-2.703378296E-1,1.565594330E0,1.609298285E0
8.691474000E0,2.255809021E-1,-1.838177490E-1,1.976040802E0,1.997351486E0
8.701421000E0,2.067201233E-1,-4.176315308E-2,2.252815247E0,2.262665222E0
8.711368000E0,1.131646729E-1,1.146615601E-1,2.367776184E0,2.373250424E0
8.721316000E0,-8.472381592E-2,2.704875183E-1,2.315834198E0,2.333115868E0
8.731263000E0,-2.320175171E-1,4.393363953E-1,2.348466339E0,2.400446363E0
8.741211000E0,-5.902226257E-1,7.352709961E-1,2.620750122E0,2.785196113E0
8.751158000E0,-9.937834167E-1,1.180894318E0,2.979254608E0,3.355305484E0
8.761105125E0,-1.025218048E0,1.774559784E0,3.353626099E0,3.930259849E0
8.771053125E0,-5.981561279E-1,2.610122223E0,4.020489349E0,4.830617288E0
8.781000125E0,2.582130432E-1,3.770658875E0,5.186863861E0,6.417795497E0
8.790947125E0,1.146765289E0,5.310955811E0,6.802903290E0,8.706366373E0
8.800895125E0,1.792971497E0,7.067552948E0,8.720565491E0,1.136720344E1
8.810842125E0,2.386038208E0,8.800050201E0,1.063658112E1,1.400967236E1
8.820789125E0,2.881807251E0,1.089090225E1,1.301438644E1,1.721310023E1
8.830737125E0,2.476150818E0,1.318039124E1,1.544398407E1,2.045411157E1
8.840684125E0,8.105644226E-1,1.436817123E1,1.727976654E1,2.248758971E1
8.850631125E0,-1.498982849E0,1.419153854E1,1.883563110E1,2.363107520E1
8.860579125E0,-1.275796967E0,1.412268173E1,1.985381378E1,2.439778102E1
8.870526125E0,1.324296112E0,1.415291885E1,2.109578110E1,2.543798051E1
8.880473125E0,4.309987335E0,1.400308044E1,2.229164429E1,2.667545047E1
8.890421125E0,5.544769592E0,1.471006027E1,2.419104446E1,2.885025087E1
8.900368125E0,4.207300873E0,1.575668381E1,2.612083145E1,3.079403028E1
8.910316125E0,1.520687714E0,1.650228333E1,2.698693039E1,3.166910573E1
8.920263125E0,-7.045848083E-1,1.714938766E1,2.610227005E1,3.123982136E1
8.930210125E0,-1.435215454E0,1.708547058E1,2.446916611E1,2.987830715E1
8.940158125E0,-6.352789307E-1,1.633897293E1,2.346640137E1,2.860135677E1
8.950105125E0,1.607806549E0,1.602357880E1,2.342553635E1,2.842702715E1
8.960052125E0,3.493435364E0,1.577090424E1,2.301389236E1,2.811698335E1
8.970000125E0,3.455713806E0,1.494656845E1,2.181204163E1,2.666659008E1
8.979947125E0,2.251617737E0,1.429033310E1,1.966760101E1,2.441511688E1
8.989894125E0,8.644523621E-1,1.385369110E1,1.676483734E1,2.176538091E1
8.999842125E0,-3.733236694E-1,1.283116745E1,1.347707428E1,1.861208639E1
9.009789125E0,-1.042731628E0,1.137035522E1,1.009171417E1,1.523860106E1
9.019736125E0,-8.735833740E-1,9.880653076E0,7.319029999E0,1.232715106E1
9.029684125E0,-2.824626160E-1,8.428971863E0,5.001998291E0,9.805474935E0
9.039631125E0,6.373745728E-1,7.072043610E0,3.107537842E0,7.750925016E0
9.049579125E0,1.253493347E0,5.848338318E0,1.674418030E0,6.211117644E0
9.059526125E0,1.114881592E0,4.538412323E0,7.937992859E-1,4.740281076E0
9.069473125E0,4.273612976E-1,3.268602905E0,5.589376831E-1,3.343473338E0
9.079421125E0,-3.378474426E-1,2.191442871E0,9.123527527E-1,2.397696873E0
9.089368125E0,-7.608677673E-1,1.331930237E0,1.447789307E0,2.109277552E0
9.099315125E0,-7.776329041E-1,6.209088135E-1,1.811682587E0,2.066986812E0
9.109263125E0,-6.198609924E-1,3.442840576E-2,1.949396210E0,2.045863766E0
9.119210125E0,-1.796264648E-1,-3.817062378E-1,1.900298309E0,1.946560809E0
9.129157125E0,4.516108704E-1,-5.667214966E-1,1.529968414E0,1.692905485E0
9.139105125E0,9.216334534E-1,-7.152127075E-1,9.229806519E-1,1.487558645E0
9.149052125E0,1.091380463E0,-8.300239563E-1,2.350112915E-1,1.391143914E0
9.158999125E0,8.325686646E-1,-8.517288208E-1,-4.987628174E-1,1.291269497E0
9.168947125E0,4.150868225E-1,-7.908055115E-1,-1.144519958E0,1.451756303E0
9.178894125E0,-8.113128662E-2,-6.882687378E-1,-1.684596863E0,1.821582480E0
9.188841125E0,-4.966671753E-1,-6.376739502E-1,-2.297572174E0,2.435599360E0
9.198789125E0,-5.545967102E-1,-6.466552734E-1,-2.801424408E0,2.928091403E0
9.208736125E0,-1.639091492E-1,-7.599696350E-1,-2.922821960E0,3.024451730E0
9.218684125E0,4.312532043E-1,-8.858578491E-1,-2.442770233E0,2.633979853E0
9.228631125E0,8.987310791E-1,-8.626560974E-1,-1.582209778E0,2.013772797E0
9.238578125E0,1.169368286E0,-7.990383911E-1,-7.029382324E-1,1.581140948E0
9.248526125E0,1.203197937E0,-7.885601807E-1,8.217910767E-2,1.440925342E0
9.258473125E0,1.037492523E0,-7.089257812E-1,7.116201782E-1,1.444080945E0
9.268420125E0,8.238867188E-1,-5.228627014E-1,1.380279694E0,1.690368824E0
9.278368125E0,7.520361328E-1,-2.734812927E-1,1.912722473E0,2.073368665E0
9.288315125E0,6.261479187E-1,-2.439926147E-2,2.093845825E0,2.185599890E0
9.298262125E0,3.559597778E-1,1.586700439E-1,2.016157379E0,2.053478542E0
9.308210125E0,1.064286804E-1,3.709286499E-1,1.913470917E0,1.951995409E0
9.318157125E0,-1.660047913E-1,6.357279968E-1,1.876946869E0,1.988626970E0
9.328105125E0,-6.008505249E-1,8.952882385E-1,2.009122009E0,2.280160878E0
9.338052125E0,-1.042132874E0,1.182540894E0,2.359543304E0,2.837584976E0
9.347999125E0,-1.462159424E0,1.565744019E0,2.817291412E0,3.539293067E0
9.357947125E0,-1.697619781E0,2.035317535E0,3.497626648E0,4.388373567E0
9.367894125E0,-1.105301514E0,2.833607483E0,4.296515350E0,5.264130219E0
9.377841125E0,1.422042847E-2,3.891008606E0,5.384452972E0,6.643228432E0
9.387789125E0,1.342558136E0,5.127886505E0,6.441554718E0,8.342140585E0
9.397736125E0,2.408790894E0,6.547684021E0,7.385791168E0,1.015993852E1
9.407683125E0,2.744692383E0,8.044421539E0,8.168064423E0,1.178827089E1
9.417631125E0,2.988684998E0,9.959838409E0,8.713230743E0,1.356654006E1
9.427578125E0,2.921474762E0,1.217792587E1,9.292975159E0,1.559475170E1
9.437525125E0,2.120041351E0,1.395233597E1,9.938732300E0,1.726095751E1
9.447473125E0,1.618135071E0,1.551643341E1,1.079480209E1,1.897118391E1
9.457420125E0,2.592608643E0,1.727617401E1,1.210278214E1,2.125241500E1
9.467367125E0,4.840933228E0,1.876857056E1,1.391865601E1,2.386258285E1
9.477315125E0,6.676566010E0,1.853685242E1,1.653701111E1,2.572283358E1
9.487262125E0,8.319250031E0,1.778840881E1,1.991189301E1,2.796642437E1
9.497210125E0,8.454119568E0,1.799438049E1,2.382191208E1,3.102826715E1
9.507157125E0,5.747747498E0,1.770128998E1,2.717957977E1,3.294088379E1
9.517104125E0,1.534459076E0,1.704744965E1,2.927612000E1,3.391255381E1
9.527052125E0,-1.426533508E0,1.640079437E1,2.958582596E1,3.385767493E1
9.536999125E0,-2.053878937E0,1.587194412E1,2.870341095E1,3.286370078E1
9.546946125E0,-9.761201477E-1,1.548619629E1,2.729768417E1,3.139965999E1
9.556894125E0,6.842271423E-1,1.502036499E1,2.529440002E1,2.942594440E1
9.566841125E0,1.942061462E0,1.443702805E1,2.257216095E1,2.686450877E1
9.576788125E0,2.144141235E0,1.364667160E1,1.961835342E1,2.399393212E1
9.586736125E0,1.993704071E0,1.292098068E1,1.647144745E1,2.102938845E1
9.596683125E0,1.797462158E0,1.213391739E1,1.336331085E1,1.813948451E1
9.606630125E0,1.319057007E0,1.122410934E1,1.044228516E1,1.538706799E1
9.616578125E0,6.274951172E-1,1.007569748E1,8.111931152E0,1.295055431E1
9.626525125E0,6.242019653E-2,8.783135376E0,6.537355499E0,1.094917258E1
9.636472125E0,-1.184037781E-1,7.773634644E0,5.567821655E0,9.562638392E0
9.646420125E0,-8.337661743E-2,6.866970062E0,4.736151123E0,8.342263299E0
9.656367125E0,-2.008822632E-1,5.796096954E0,3.725752258E0,6.893208504E0
9.666315125E0,-2.644999695E-1,4.713847504E0,2.751278687E0,5.464416980E0
9.676262125E0,-7.077282715E-1,3.608545990E0,2.177671509E0,4.273726321E0
9.686209125E0,-1.277293854E0,2.380200348E0,2.105222168E0,3.424732641E0
9.696157125E0,-1.391656036E0,1.312919769E0,2.375260620E0,3.049971780E0
9.706104125E0,-1.099014587E0,5.613327026E-1,2.613265686E0,2.889997407E0
9.716051125E0,-5.771997070E-1,-7.170089722E-2,2.416574707E0,2.485585210E0
9.725999125E0,-4.894821167E-2,-5.736071777E-1,1.927841034E0,2.011962270E0
9.735946125E0,3.022215271E-1,-9.536668396E-1,1.454824677E0,1.765597103E0
9.745893125E0,6.117778015E-1,-1.177301788E0,9.886940002E-1,1.654638149E0
9.755841125E0,7.466473389E-1,-1.184786224E0,1.648072815E-1,1.410092935E0
9.765788333E0,4.388873291E-1,-1.212029572E0,-8.178991699E-1,1.526629235E0
9.775736333E0,-1.437011719E-2,-1.267414398E0,-1.715133362E0,2.132657545E0
9.785683333E0,-1.936972046E-1,-1.031355286E0,-2.452649689E0,2.667714908E0
9.795630333E0,-2.168989563E-1,-8.048762512E-1,-2.984044647E0,3.098288785E0
9.805578333E0,-2.535726929E-1,-7.795788574E-1,-3.170556793E0,3.274824069E0
9.815525333E0,-2.727328491E-1,-8.343649292E-1,-3.039728851E0,3.163937346E0
9.825472333E0,-1.622625732E-1,-8.205935669E-1,-2.572999420E0,2.705555204E0
9.835420333E0,6.152206421E-2,-8.202941895E-1,-1.857187958E0,2.031210140E0
9.845367333E0,3.076103210E-1,-8.217910767E-1,-1.173409882E0,1.465215149E0
9.855314333E0,5.230123901E-1,-8.758287048E-1,-5.572911072E-1,1.162407527E0
9.865262333E0,4.918771362E-1,-8.746311951E-1,5.478607178E-2,1.004949928E0
9.875209333E0,3.597019958E-1,-9.726773071E-1,5.254074097E-1,1.162557360E0
9.885156333E0,1.332229614E-1,-1.153501282E0,8.521778870E-1,1.440319657E0
9.895104333E0,6.436614990E-3,-1.179996185E0,1.048120422E0,1.578286681E0
9.905051333E0,7.649093628E-2,-1.023122406E0,1.121617584E0,1.520084316E0
9.914999333E0,3.010240173E-1,-8.445437622E-1,1.200353851E0,1.498238630E0
9.924946333E0,4.851411438E-1,-6.548881531E-1,1.178499298E0,1.432864620E0
9.934893333E0,4.834945679E-1,-3.701802063E-1,1.123264160E0,1.277702139E0
9.944841333E0,3.914360046E-1,2.230361938E-2,1.274898834E0,1.333824064E0
9.954788333E0,1.782792664E-1,5.337899780E-1,1.646276550E0,1.739810828E0
9.964735333E0,2.636018372E-1,1.263223114E0,2.294428711E0,2.632417458E0
9.974683333E0,7.694000244E-1,2.304158478E0,3.194656677E0,4.013346979E0
9.984630333E0,1.515149231E0,3.479664001E0,4.095483398E0,5.583612005E0
9.994577333E0,2.584076385E0,4.890330505E0,5.227279816E0,7.610337541E0
1.000452533E1,3.993545380E0,6.758745117E0,6.677314453E0,1.030609376E1
1.001447233E1,5.124593353E0,9.119934998E0,8.631051636E0,1.356206930E1
1.002442033E1,5.648503876E0,1.195788345E1,1.100541412E1,1.720510717E1
1.003436733E1,4.855752411E0,1.467054245E1,1.334295319E1,2.041659979E1
1.004431433E1,2.234104156E0,1.673055862E1,1.587688385E1,2.317279124E1
1.005426233E1,2.592608643E-1,1.781744843E1,1.768766830E1,2.510741513E1
1.006420933E1,1.215322723E0,1.884670807E1,2.062725540E1,2.796710710E1
1.007415633E1,2.809806976E0,1.919099213E1,2.461241821E1,3.133624617E1
1.008410433E1,5.894442444E0,1.827804062E1,2.814626953E1,3.407409146E1
1.009405133E1,8.823701019E0,1.861768433E1,3.086282043E1,3.710780989E1
1.010399833E1,7.506589966E0,1.882380569E1,3.246718414E1,3.827273964E1
1.011394633E1,3.711681519E0,1.846949249E1,3.249787033E1,3.756341716E1
1.012389333E1,1.169967041E0,1.810200668E1,3.067346420E1,3.563583695E1
1.013384033E1,5.769003296E-1,1.797522034E1,2.831541779E1,3.354406422E1
1.014378833E1,1.764530640E0,1.813718353E1,2.577205673E1,3.156374349E1
1.015373533E1,3.192261658E0,1.788765244E1,2.292363007E1,2.925152064E1
1.016368333E1,3.795207825E0,1.708457245E1,1.975666580E1,2.639340944E1
1.017363033E1,3.492836609E0,1.585742432E1,1.639181305E1,2.307269704E1
1.018357733E1,2.953208771E0,1.430934357E1,1.277024414E1,1.940509961E1
1.019352533E1,2.528541870E0,1.267429367E1,9.522447968E0,1.605329435E1
1.020347233E1,2.300266571E0,1.095227463E1,7.357799377E0,1.339331018E1
1.021341933E1,2.161355438E0,9.373507690E0,6.104455719E0,1.139291374E1
1.022336733E1,1.988764343E0,7.801476746E0,5.536985779E0,9.771204355E0
1.023331433E1,1.816023560E0,6.013594666E0,4.828209686E0,7.922933241E0
1.024326133E1,1.886227570E0,4.138294373E0,3.920347595E0,6.004370077E0
1.025320933E1,1.819616089E0,2.609373779E0,2.920726318E0,4.318619740E0
1.026315633E1,1.186432800E0,1.057700500E0,1.846410370E0,2.436305480E0
1.027310433E1,5.457650757E-1,-3.888912964E-1,9.464817810E-1,1.159708463E0
1.028305133E1,2.915936279E-1,-1.497336273E0,1.802252197E-1,1.536074181E0
1.029299833E1,2.633024597E-1,-2.337688751E0,-3.278182983E-1,2.375201406E0
1.030294633E1,4.752616882E-1,-2.908451843E0,-6.744973755E-1,3.023228821E0
1.031289333E1,9.250762939E-1,-3.096760254E0,-1.116528168E0,3.419404242E0
1.032284033E1,1.309925995E0,-3.152145081E0,-1.714983673E0,3.820090800E0
1.033278833E1,1.421593781E0,-3.237168274E0,-2.360740814E0,4.251268576E0
1.034273533E1,1.306034088E0,-3.135978699E0,-2.933599548E0,4.488440013E0
1.035268233E1,1.189725952E0,-2.789598999E0,-3.365900574E0,4.530628774E0
1.036263033E1,1.023870850E0,-2.407294006E0,-3.554807739E0,4.413619151E0
1.037257733E1,6.894662476E-1,-2.086361389E0,-3.646716614E0,4.257559115E0
1.038252533E1,2.469863892E-1,-1.863923950E0,-3.620072021E0,4.079232306E0
1.039247233E1,-1.047821045E-2,-1.526675262E0,-3.380719757E0,3.709462660E0
1.040241933E1,-6.032455444E-2,-1.153650970E0,-2.979553986E0,3.195667625E0
1.041236733E1,-1.234931946E-1,-9.954299927E-1,-2.457589417E0,2.654407124E0
1.042231433E1,-1.606159973E-1,-8.466394043E-1,-1.887724457E0,2.075114311E0
1.043226133E1,-1.773811340E-1,-6.471043396E-1,-1.270857239E0,1.437110370E0
1.044220933E1,-2.106120300E-1,-4.917274475E-1,-6.518943787E-1,8.432790705E-1
1.045215633E1,-2.282752991E-1,-3.914360046E-1,-1.142124939E-1,4.673074487E-1
1.046210333E1,-9.684860229E-2,-1.917512512E-1,4.203259277E-1,4.720403369E-1
1.047205133E1,-6.331832886E-2,-6.735992432E-2,8.881031799E-1,8.929019142E-1
1.048199833E1,-1.353186035E-1,-1.064286804E-1,1.240171051E0,1.252063267E0
1.049194533E1,-9.624984741E-2,-1.020877075E-1,1.457519073E0,1.464256734E0
1.050189333E1,7.933502197E-3,-3.502716064E-2,1.575174408E0,1.575583783E0
1.051184033E1,1.854643250E-1,2.903961182E-2,1.659898224E0,1.670479700E0
1.052178833E1,3.242257690E-1,5.388793945E-3,1.668131104E0,1.699356574E0
1.053173533E1,4.531077576E-1,1.272354126E-2,1.638792114E0,1.700325887E0
1.054168233E1,4.134402466E-1,1.152603149E-2,1.691033478E0,1.740879062E0
1.055163033E1,2.570155334E-1,8.277786255E-2,1.950593719E0,1.969194002E0
1.056157733E1,4.531077576E-1,4.436773682E-1,2.306553497E0,2.392142404E0
1.057152433E1,1.170715485E0,1.041085052E0,2.633473663E0,3.064248092E0
1.058147233E1,2.451452179E0,2.202220459E0,3.113675079E0,4.533692230E0
1.059141933E1,4.055815887E0,3.926784210E0,3.314856720E0,6.546567942E0
1.060136633E1,5.410947876E0,5.834417267E0,3.447929993E0,8.672197126E0
1.061131433E1,6.153403931E0,8.443192291E0,4.610711975E0,1.141974347E1
1.062126133E1,5.992338867E0,1.161389877E1,6.948400726E0,1.480104869E1
1.063120933E1,4.296665039E0,1.465108292E1,1.044063858E1,1.849655360E1
1.064115633E1,1.317410431E0,1.735341339E1,1.443268707E1,2.260926763E1
1.065110333E1,-1.393152924E0,2.004511597E1,1.887529861E1,2.756854089E1
1.066105133E1,-2.677631836E0,2.181683167E1,2.320399704E1,3.196199829E1
1.067099833E1,-8.774752808E-1,2.181907700E1,2.680730392E1,3.457562187E1
1.068094533E1,2.791245575E0,2.165367096E1,3.047722229E1,3.749044674E1
1.069089333E1,4.553680573E0,2.192430817E1,3.392305664E1,4.064707944E1
1.070084033E1,3.188369751E0,2.191233307E1,3.557891327E1,4.190674303E1
1.071078733E1,5.990542603E-1,2.192490692E1,3.476415756E1,4.110483014E1
1.072073533E1,-9.746232605E-1,2.192610443E1,3.258304321E1,3.928560361E1
1.073068233E1,-6.595285034E-1,2.177491882E1,2.986230103E1,3.696402427E1
1.074063033E1,9.472302246E-1,2.138587784E1,2.686972412E1,3.435454978E1
1.075057733E1,2.529290314E0,2.072305618E1,2.396696045E1,3.178454908E1
1.076052433E1,3.280278625E0,1.961491058E1,2.070853638E1,2.871146851E1
1.077047237E1,2.995420990E0,1.805485474E1,1.710867233E1,2.505308355E1
1.078041938E1,2.192041626E0,1.629631165E1,1.353859634E1,2.129949320E1
1.079036638E1,1.307231598E0,1.437400909E1,1.067160828E1,1.795004777E1
1.080031437E1,7.189549255E-1,1.234078720E1,8.546926575E0,1.502870183E1
1.081026138E1,7.382647705E-1,1.035606445E1,6.684349823E0,1.234802164E1
1.082020838E1,1.032702484E0,8.371341705E0,4.953050079E0,9.781540853E0
1.083015637E1,1.232686615E0,6.387217712E0,3.499123535E0,7.386469516E0
1.084010338E1,1.425785065E0,4.539310455E0,2.553390198E0,5.399815179E0
1.085005138E1,1.384321289E0,2.956202545E0,2.019899597E0,3.838681193E0
1.085999837E1,1.080902252E0,1.609303436E0,1.692081299E0,2.573197690E0
1.086994538E1,4.421804810E-1,4.227209473E-1,1.513652344E0,1.632593028E0
1.087989338E1,-4.561015320E-1,-8.289761353E-1,1.295555878E0,1.604274002E0
1.088984037E1,-8.527766418E-1,-1.847458191E0,8.864566040E-1,2.219489824E0
1.089978738E1,-6.113287354E-1,-2.403252411E0,3.101550293E-1,2.499108064E0
1.090973538E1,-6.212081909E-2,-2.677482147E0,-3.667373657E-1,2.703195505E0
1.091968237E1,5.412744141E-1,-2.813698883E0,-9.629475403E-1,3.022771470E0
1.092962937E1,9.954299927E-1,-2.810854797E0,-1.489253082E0,3.333115705E0
1.093957738E1,1.239572296E0,-2.718197479E0,-2.028880920E0,3.611300985E0
1.094952437E1,1.087488556E0,-2.612367554E0,-2.536175995E0,3.799905824E0
1.095947237E1,5.453160095E-1,-2.424059143E0,-3.000211029E0,3.895471537E0
1.096941938E1,-3.143463135E-3,-2.173180847E0,-3.312761078E0,3.961957955E0
1.097936638E1,-3.394940186E-1,-2.058968353E0,-3.470233612E0,4.049336759E0
1.098931437E1,-4.312532043E-1,-1.886377258E0,-3.346740417E0,3.865885398E0
1.099926138E1,-3.381468201E-1,-1.620679779E0,-3.004402313E0,3.430361421E0
1.100920838E1,-2.303709412E-1,-1.410516815E0,-2.807262268E0,3.150134902E0
1.101915637E1,-2.448907471E-1,-1.301244049E0,-2.588866425E0,2.907823399E0
1.102910338E1,-2.173480225E-1,-1.154549103E0,-2.263443146E0,2.550176203E0
1.103905038E1,-1.365161133E-1,-1.040486298E0,-1.757944336E0,2.047343809E0
1.104899837E1,-8.831634521E-3,-9.439370728E-1,-1.043629761E0,1.407216498E0
1.105894538E1,2.347119141E-1,-7.508386230E-1,-4.433779907E-1,9.030129363E-1
1.106889338E1,3.373983765E-1,-6.602769470E-1,-1.041833496E-1,7.487706468E-1
1.107884037E1,3.692820740E-1,-6.209088135E-1,1.368154907E-1,7.352655869E-1
1.108878738E1,4.840933228E-1,-4.888833618E-1,3.727249146E-1,7.824814046E-1
1.109873538E1,4.647834778E-1,-3.549119568E-1,7.153623962E-1,9.239748569E-1
1.110868237E1,3.924838257E-1,-2.023791504E-1,1.088985443E0,1.175112833E0
1.111862938E1,2.646496582E-1,-2.694396973E-3,1.448986816E0,1.472959434E0
1.112857738E1,9.520202637E-2,2.266287231E-1,1.813927917E0,1.830507715E0
1.113852437E1,6.795867920E-2,5.155279541E-1,2.139351196E0,2.201638252E0
1.114847137E1,2.903961182E-1,8.686436462E-1,2.418969727E0,2.586558762E0
1.115841938E1,7.307803345E-1,1.383722534E0,2.704875183E0,3.124912432E0
1.116836637E1,1.478625183E0,2.045795746E0,2.903512115E0,3.847336127E0
1.117831437E1,2.498454437E0,2.867586823E0,3.021317139E0,4.857333220E0
1.118826138E1,3.853885803E0,4.005520477E0,3.294049988E0,6.461222439E0
1.119820837E1,5.235063629E0,5.544320526E0,3.994443512E0,8.608191463E0
1.120815637E1,6.150410156E0,7.654183044E0,5.269641724E0,1.114375103E1
1.121810338E1,5.708229675E0,9.978848877E0,7.178621979E0,1.355337318E1
1.122805038E1,4.137994995E0,1.223765167E1,9.645941162E0,1.612226107E1
1.123799837E1,2.663710785E0,1.471395218E1,1.263806900E1,1.957847113E1
1.124794538E1,2.475252686E0,1.751477783E1,1.595008163E1,2.381804825E1
1.125789338E1,2.756966858E0,1.889984756E1,1.996922379E1,2.763286092E1
1.126784037E1,2.836002502E0,1.827220276E1,2.511192947E1,3.118533799E1
1.127778738E1,3.964954834E0,1.869851624E1,3.052557175E1,3.601618951E1
1.128773538E1,3.745211792E0,1.970487350E1,3.462240234E1,4.001274041E1
1.129768237E1,1.012494507E0,1.944501389E1,3.676968704E1,4.160701378E1
1.130762938E1,-1.713337097E0,1.883503235E1,3.683555008E1,4.140714573E1
1.131757738E1,-2.456541595E0,1.862067810E1,3.540722031E1,4.008036301E1
1.132752437E1,-1.502575378E0,1.851469849E1,3.332609802E1,3.815338258E1
1.133747138E1,3.435356140E-1,1.811083832E1,3.073753098E1,3.567795246E1
1.134741938E1,2.133064270E0,1.752630386E1,2.762505341E1,3.278513178E1
1.135736637E1,3.011287994E0,1.683848419E1,2.423849579E1,2.966659878E1
1.136731337E1,2.935096436E0,1.588227264E1,2.063069824E1,2.620089856E1
1.137726138E1,2.189945984E0,1.437400909E1,1.696107925E1,2.234023747E1
1.138720837E1,1.513652344E0,1.262399826E1,1.384381165E1,1.879647830E1
1.139715637E1,1.398092651E0,1.095137650E1,1.152573212E1,1.596025724E1
1.140710338E1,1.708397369E0,9.472152557E0,9.858948212E0,1.377821307E1
1.141705037E1,1.940414886E0,8.031697998E0,8.363408203E0,1.175669934E1
1.142699837E1,1.949096832E0,6.495891724E0,6.749913483E0,9.568538016E0
1.143694538E1,1.859133911E0,4.902754669E0,5.088967438E0,7.306912606E0
1.144689238E1,1.892514496E0,3.472478943E0,3.497327271E0,5.279301011E0
1.145684037E1,2.006577301E0,2.174827423E0,1.963017883E0,3.551009152E0
1.146678738E1,2.017055511E0,9.813592529E-1,6.204597473E-1,2.327348108E0
1.147673538E1,1.738634491E0,-1.293310547E-1,-4.622387695E-1,1.803674332E0
1.148668237E1,1.397643585E0,-1.100661163E0,-1.150507507E0,2.118615140E0
1.149662938E1,1.084943848E0,-1.882485352E0,-1.437161407E0,2.605050319E0
1.150657738E1,1.079405365E0,-2.400258636E0,-1.663191376E0,3.113288136E0
1.151652437E1,1.320404205E0,-2.763403473E0,-1.936822357E0,3.623692435E0
1.152647138E1,1.517544250E0,-3.156036987E0,-2.065854034E0,4.065865579E0
1.153641938E1,1.622326355E0,-3.442241821E0,-2.138902130E0,4.365303412E0
1.154636637E1,1.631457367E0,-3.452570343E0,-2.250120850E0,4.432261156E0
1.155631338E1,1.539548492E0,-3.350931702E0,-2.579735413E0,4.500443048E0
1.156626138E1,1.170715485E0,-3.287763062E0,-3.069816284E0,4.647981574E0
1.157620837E1,7.596702576E-1,-3.154091034E0,-3.559148712E0,4.815903727E0
1.158615638E1,5.176235962E-1,-2.856958923E0,-3.841761017E0,4.815524498E0
1.159610338E1,3.823049927E-1,-2.521356812E0,-3.934118958E0,4.688356775E0
1.160605037E1,1.766326904E-1,-2.371817780E0,-3.801045685E0,4.483822809E0
1.161599837E1,1.113684082E-1,-2.284998322E0,-3.349883881E0,4.056518491E0
1.162594538E1,1.766326904E-1,-2.070644073E0,-2.735261993E0,3.435174546E0
1.163589237E1,1.363664246E-1,-1.908830566E0,-2.007475433E0,2.773479322E0
1.164584037E1,2.604583740E-2,-1.786385193E0,-1.377136230E0,2.255738159E0
1.165578738E1,-7.753875732E-2,-1.557361450E0,-7.798782349E-1,1.743444007E0
1.166573537E1,-1.152603149E-1,-1.282532959E0,-3.267704773E-1,1.328515968E0
1.167568237E1,-3.233276367E-2,-9.964778137E-1,-1.534309387E-1,1.008739061E0
1.168562938E1,-6.631210327E-2,-8.217910767E-1,-1.817221069E-1,8.442516170E-1
1.169557738E1,-8.681945801E-2,-7.102729797E-1,-1.058299255E-1,7.233431393E-1
1.170552437E1,4.191284180E-3,-6.027964783E-1,1.389111328E-1,6.186092983E-1
1.171547138E1,9.220825195E-2,-6.057902527E-1,4.216731262E-1,7.438362840E-1
1.172541938E1,1.893562317E-1,-6.905140686E-1,6.165678406E-1,9.448922497E-1
1.173536637E1,2.999761963E-1,-7.539820862E-1,6.499484253E-1,1.039667091E0
1.174531338E1,3.344046021E-1,-7.138655090E-1,6.484515381E-1,1.020744728E0
1.175526138E1,6.520440674E-1,-3.499722290E-1,7.692503357E-1,1.067421241E0
1.176520908E1,1.463506622E0,5.084925842E-1,1.226998444E0,1.976345497E0
1.177515708E1,2.462529144E0,1.664239197E0,2.011367340E0,3.588779802E0
1.178510408E1,3.675307159E0,3.038231964E0,3.064726868E0,5.668446609E0
1.179505108E1,5.316943359E0,4.980293427E0,4.761298828E0,8.703055546E0
1.180499908E1,6.714137878E0,7.544161835E0,7.142996063E0,1.236998052E1
1.181494608E1,6.462211761E0,1.017089951E1,9.728719025E0,1.548726417E1
1.182489308E1,4.744683380E0,1.287367905E1,1.240036331E1,1.849358383E1
1.183484108E1,9.930349731E-1,1.535476959E1,1.558543991E1,2.190116446E1
1.184478808E1,-3.209326172E0,1.699880081E1,1.936822357E1,2.596896393E1
1.185473508E1,-3.812422028E0,1.921823547E1,2.274924271E1,3.002337723E1
1.186468308E1,-2.578388214E0,2.017759048E1,2.631677399E1,3.326192773E1
1.187463008E1,-2.201322327E0,1.896945282E1,3.065565125E1,3.611723845E1
1.188457808E1,-1.716779938E0,1.855706039E1,3.456821503E1,3.927178776E1
1.189452508E1,-2.377056885E0,1.854433685E1,3.776826050E1,4.214242909E1
1.190447208E1,-4.025129700E0,1.754845779E1,3.920856537E1,4.314465944E1
1.191442008E1,-4.622836761E0,1.692066330E1,3.855816788E1,4.236049783E1
1.192436708E1,-3.547622681E0,1.669852524E1,3.642704956E1,4.022879953E1
1.193431408E1,-1.580563202E0,1.643462402E1,3.309812210E1,3.698757539E1
1.194426208E1,2.110610962E-2,1.572554855E1,2.911715057E1,3.309232207E1
1.195420908E1,8.602610779E-1,1.485121674E1,2.503618698E1,2.912231698E1
1.196415708E1,8.249345398E-1,1.369097946E1,2.083292770E1,2.494262040E1
1.197410408E1,5.566923523E-1,1.252295837E1,1.639585464E1,2.063876068E1
1.198405108E1,4.483177185E-1,1.175505524E1,1.227746887E1,1.700348653E1
1.199399908E1,1.651066589E-1,1.090572144E1,9.069040833E0,1.418483422E1
1.200394608E1,-2.541714478E-1,9.890382843E0,6.553222504E0,1.186713955E1
1.201389308E1,-5.336402893E-1,8.846603394E0,4.737797699E0,1.004957166E1
1.202384108E1,-5.168751526E-1,7.631879425E0,3.608396301E0,8.457734173E0
1.203378808E1,-2.088157654E-1,6.274053040E0,3.217708740E0,7.054147369E0
1.204373608E1,1.971400452E-1,4.955145721E0,3.092568970E0,5.844340523E0
1.205368308E1,5.056484985E-1,3.547173615E0,3.030298462E0,4.692635701E0
1.206363008E1,3.638932800E-1,2.170336761E0,2.906356201E0,3.645502208E0
1.207357808E1,4.296066284E-2,1.058898010E0,2.648741913E0,2.852883512E0
1.208352508E1,-2.486329651E-1,9.370513916E-2,2.111658783E0,2.128309616E0
1.209347208E1,-6.716532898E-1,-8.557704163E-1,1.439556427E0,1.804379077E0
1.210342008E1,-4.718188477E-1,-1.478774872E0,8.324189758E-1,1.761337417E0
1.211336708E1,2.347119141E-1,-1.627864838E0,6.676116943E-2,1.646053057E0
1.212331408E1,6.966513062E-1,-1.817071381E0,-7.800279236E-1,2.096548355E0
1.213326208E1,8.431965637E-1,-2.011666718E0,-1.770218811E0,2.809173912E0
1.214320908E1,6.453080750E-1,-2.092648315E0,-2.663261719E0,3.447979476E0
1.215315708E1,1.077758789E-1,-2.172881470E0,-3.245251465E0,3.907004811E0
1.216310408E1,-3.188369751E-1,-2.138153687E0,-3.557202759E0,4.162577287E0
1.217305108E1,-6.494993591E-1,-2.079924774E0,-3.405867462E0,4.043249888E0
1.218299908E1,-4.418811035E-1,-1.981878662E0,-3.239413605E0,3.823205781E0
1.219294608E1,1.924996948E-1,-1.825753326E0,-3.012335815E0,3.527690237E0
1.220289308E1,8.354127502E-1,-1.726809082E0,-2.485431519E0,3.139610470E0
1.221284108E1,9.006770325E-1,-1.713486786E0,-1.678010559E0,2.561830502E0
1.222278808E1,1.085243225E-1,-1.775008850E0,-5.095404053E-1,1.849882529E0
1.223273608E1,-1.066981201E0,-1.656455383E0,1.109792175E0,2.261400449E0
1.224268308E1,-1.939217377E0,-1.531165924E0,1.970801697E0,3.160552554E0
1.225263008E1,-1.726958771E0,-1.473984833E0,1.679357758E0,2.824050347E0
1.226257808E1,-7.276368713E-1,-1.450334015E0,6.397695923E-1,1.744198757E0
1.227252508E1,2.616558838E-1,-1.525028687E0,-7.529342651E-1,1.720780725E0
1.228247208E1,5.382806396E-1,-1.490749969E0,-1.667232971E0,2.300379816E0
1.229242008E1,1.748364258E-1,-1.314416656E0,-2.032473450E0,2.426768890E0
1.230236708E1,-2.968327332E-1,-9.895921326E-1,-2.144889679E0,2.380746521E0
1.231231508E1,-7.280859375E-1,-5.751040649E-1,-2.084415436E0,2.281587501E0
1.232226208E1,-7.987390137E-1,-1.255888367E-1,-1.885778503E0,2.051808259E0
1.233220908E1,-6.468049622E-1,3.860472107E-1,-1.346150665E0,1.542566278E0
1.234215708E1,-4.023632813E-1,9.418414307E-1,-2.047741699E-1,1.044458688E0
1.235210408E1,1.817221069E-1,1.941612396E0,1.017134857E0,2.199419228E0
1.236205108E1,9.613009644E-1,3.577410736E0,2.270927582E0,4.345006237E0
1.237199908E1,2.044747925E0,5.575904846E0,3.275189209E0,6.782224803E0
1.238194608E1,3.842359772E0,8.248896332E0,4.384382629E0,1.010103115E1
1.239189308E1,5.367089081E0,1.155911270E1,6.367309113E0,1.424645068E1
1.240184108E1,4.954397278E0,1.476858856E1,9.598190460E0,1.829706317E1
1.241178808E1,1.920057220E0,1.758153900E1,1.364158218E1,2.233584334E1
1.242173608E1,-2.834804993E0,1.982776794E1,1.856379639E1,2.730917497E1
1.243168308E1,-5.340444489E0,2.179572556E1,2.344050522E1,3.245044352E1
1.244163008E1,-3.352578278E0,2.380993698E1,2.768627609E1,3.666991634E1
1.245157808E1,-5.129832458E-1,2.344709152E1,3.148342987E1,3.925857370E1
1.246152508E1,2.863395538E0,2.283157150E1,3.406720688E1,4.111026971E1
1.247147208E1,4.348756714E0,2.364752472E1,3.649231384E1,4.370132813E1
1.248142008E1,2.466570740E0,2.392160477E1,3.827899841E1,4.520629232E1
1.249136708E1,3.867956543E-1,2.423280762E1,3.688734238E1,4.413677156E1
1.250131508E1,-9.455836487E-1,2.404943893E1,3.294813400E1,4.080256335E1
1.251126208E1,-1.677112427E0,2.345577347E1,2.854833344E1,3.698639421E1
1.252120908E1,-1.728305969E0,2.251587799E1,2.366653519E1,3.271172100E1
1.253115708E1,-1.567390594E0,2.101075790E1,1.892185181E1,2.831863586E1
1.254110408E1,-1.393901367E0,1.886856262E1,1.539294022E1,2.439074056E1
1.255105108E1,-7.999365234E-1,1.641217072E1,1.304612045E1,2.098095577E1
1.256099908E1,1.592687988E-1,1.388437729E1,1.098296082E1,1.770386194E1
1.257094608E1,1.183738403E0,1.127919479E1,8.538544006E0,1.419606303E1
1.258089308E1,1.924248505E0,8.743018799E0,5.974226532E0,1.076264339E1
1.259084108E1,2.123933258E0,6.475384369E0,3.634442139E0,7.723397236E0
1.260078808E1,1.879491577E0,4.452490997E0,1.935175781E0,5.205964846E0
1.261073608E1,1.109343109E0,2.918780365E0,8.984317017E-1,3.249169198E0
1.262068308E1,1.276844788E-1,1.470392303E0,-4.221221924E-2,1.476529283E0
1.263063008E1,-4.275109863E-1,-2.465373230E-1,-9.443861389E-1,1.065556885E0
1.264057808E1,-3.583547974E-1,-2.016606445E0,-1.554966431E0,2.571583232E0
1.265052508E1,4.378395081E-1,-3.386108551E0,-1.880090332E0,3.897713972E0
1.266047208E1,1.575473785E0,-4.044888611E0,-2.269879761E0,4.898529948E0
1.267042008E1,2.306703186E0,-4.363126831E0,-2.753673706E0,5.651590414E0
1.268036708E1,2.604284363E0,-4.591252441E0,-3.389551392E0,6.273033928E0
1.269031508E1,2.777474213E0,-4.472848663E0,-3.884721680E0,6.543072726E0
1.270026208E1,2.438129883E0,-4.308041382E0,-4.184997253E0,6.482121557E0
1.271020908E1,1.725312195E0,-4.172573090E0,-4.305646362E0,6.239043112E0
1.272015708E1,1.336570587E0,-3.682043152E0,-4.479734344E0,5.950788393E0
1.273010408E1,1.169368286E0,-3.104993134E0,-4.655019836E0,5.716433698E0
1.274005108E1,6.352789307E-1,-2.698438568E0,-4.457430725E0,5.249175049E0
1.274999908E1,6.122268677E-2,-2.214644623E0,-3.935765533E0,4.516486395E0
1.275994608E1,-4.096980286E-1,-1.552721100E0,-3.084785156E0,3.477742766E0
1.276989300E1,-9.885443115E-1,-1.096020813E0,-2.037562866E0,2.515977725E0
1.277984000E1,-1.544039154E0,-7.078779602E-1,-8.613088989E-1,1.904468728E0
1.278978700E1,-1.911075897E0,-1.540296936E-1,2.878514099E-1,1.938761116E0
1.279973500E1,-1.995200958E0,4.358935547E-1,9.948312378E-1,2.271677628E0
1.280968200E1,-1.939217377E0,7.378157043E-1,9.392967224E-1,2.277545692E0
1.281962900E1,-1.861678619E0,7.822732544E-1,5.637277222E-1,2.096565685E0
1.282957700E1,-1.707499237E0,6.092330933E-1,5.968089294E-1,1.908638128E0
1.283952400E1,-1.560953979E0,3.164419556E-1,1.069825287E0,1.918655514E0
1.284947200E1,-1.354982300E0,9.505233765E-2,1.494342499E0,2.019423552E0
1.285941900E1,-9.744735718E-1,-9.729766846E-2,1.561403046E0,1.843107444E0
1.286936600E1,-4.893324280E-1,-2.643502808E-1,1.328188019E0,1.439934273E0
1.287931400E1,-2.903961182E-2,-4.029620361E-1,8.620573425E-1,9.520318080E-1
1.288926100E1,1.642085266E-1,-4.224215698E-1,6.409671021E-1,7.850116233E-1
1.289920800E1,-8.831634521E-3,-2.055226135E-1,7.930508423E-1,8.192967600E-1
1.290915600E1,-2.285746765E-1,2.284249878E-1,1.187181244E0,1.230375416E0
1.291910300E1,-2.633024597E-1,8.964857483E-1,1.599124603E0,1.852083794E0
1.292905100E1,-0.000000000E0,1.777403870E0,1.870809631E0,2.580521884E0
1.293899800E1,5.495072937E-1,3.105292511E0,2.139650574E0,3.810892864E0
1.294894500E1,1.422491913E0,4.812642059E0,2.606679382E0,5.655067129E0
1.295889300E1,2.388283539E0,6.948849792E0,3.721111908E0,8.236327187E0
1.296884000E1,2.850522308E0,9.283245392E0,5.450465698E0,1.113605400E1
1.297878700E1,2.481389923E0,1.146046783E1,7.425458679E0,1.387937519E1
1.298873500E1,1.317111053E0,1.382046021E1,9.445358276E0,1.679150663E1
1.299868200E1,-5.230123901E-1,1.601055588E1,1.191267746E1,1.996304901E1
1.300863000E1,-1.849553833E0,1.771341476E1,1.523337204E1,2.343590271E1
1.301857700E1,-8.300239563E-1,2.002176453E1,1.934981186E1,2.785633166E1
1.302852400E1,3.357518005E-1,2.153182434E1,2.438863358E1,3.253517537E1
1.303847200E1,1.209634552E0,2.181758011E1,2.865506149E1,3.603585113E1
1.304841900E1,3.201392670E0,2.329216370E1,3.101909546E1,3.892246251E1
1.305836600E1,3.506308594E0,2.502870255E1,3.157114746E1,4.044091373E1
1.306831400E1,2.189796295E0,2.622740982E1,3.029939209E1,4.013384351E1
1.307826100E1,8.991801453E-1,2.762744843E1,2.787787766E1,3.925889064E1
1.308820800E1,-4.174818420E-1,2.838472366E1,2.535277863E1,3.806087509E1
1.309815600E1,-1.717977448E0,2.832424942E1,2.303290283E1,3.654762871E1
1.310810300E1,-3.185076599E0,2.746578461E1,2.121538239E1,3.485120495E1
1.311805100E1,-4.265978851E0,2.568763229E1,1.934891373E1,3.244123134E1
1.312799800E1,-4.199666748E0,2.292752197E1,1.747750534E1,2.913368596E1
1.313794500E1,-2.486629028E0,1.960847397E1,1.588436829E1,2.535722247E1
1.314789300E1,-1.302291870E-2,1.606534195E1,1.415935547E1,2.141454480E1
1.315784000E1,1.835932159E0,1.285721329E1,1.235889954E1,1.792821737E1
1.316778700E1,2.502795410E0,1.015024246E1,1.027523254E1,1.465850643E1
1.317773500E1,2.369422760E0,7.631430359E0,7.637268219E0,1.105354058E1
1.318768200E1,2.095791779E0,5.478307800E0,4.601580963E0,7.455115485E0
1.319763000E1,1.823358307E0,3.619622955E0,1.975891113E0,4.508930200E0
1.320757700E1,1.352287903E0,2.013313293E0,1.167572021E-1,2.428115573E0
1.321752400E1,8.869056702E-1,7.714956665E-1,-8.324189758E-1,1.440391816E0
1.322747200E1,2.305206299E-1,-2.173480225E-1,-1.442250824E0,1.476640567E0
1.323741900E1,-5.873785400E-1,-1.219364319E0,-2.103276215E0,2.501126491E0
1.324736600E1,-7.988887024E-1,-2.216889954E0,-2.482437744E0,3.422765166E0
1.325731400E1,-2.811154175E-1,-2.847678223E0,-2.297422485E0,3.669665818E0
1.326726100E1,5.147795105E-1,-3.090173950E0,-2.261347504E0,3.863659602E0
1.327720900E1,1.391805725E0,-3.421884155E0,-2.211950226E0,4.305709947E0
1.328715600E1,1.885479126E0,-3.832779694E0,-2.068997498E0,4.746154481E0
1.329710300E1,2.142344971E0,-3.907923431E0,-1.948647766E0,4.864024634E0
1.330705100E1,2.139650574E0,-3.600911865E0,-1.919159088E0,4.607368277E0
1.331699800E1,1.693428497E0,-3.305276642E0,-2.278861084E0,4.357265380E0
1.332694500E1,9.066645813E-1,-3.176394653E0,-2.996319122E0,4.459759180E0
1.333689300E1,2.662962341E-1,-3.017874298E0,-3.535946960E0,4.656329012E0
1.334684000E1,-3.921844482E-2,-2.629731445E0,-3.572920074E0,4.436528307E0
1.335678800E1,-1.450483704E-1,-2.326162720E0,-3.249442749E0,3.998868616E0
1.336673500E1,-1.116677856E-1,-2.027084656E0,-2.880609741E0,3.524124626E0
1.337668200E1,-8.143066406E-2,-1.626966705E0,-2.387385406E0,2.890200805E0
1.338663000E1,-1.971400452E-1,-1.155147858E0,-1.936672668E0,2.263610345E0
1.339657700E1,-3.917353821E-1,-7.337741089E-1,-1.608105927E0,1.810493227E0
1.340652400E1,-5.734574890E-1,-4.191284180E-1,-9.250762939E-1,1.166313968E0
1.341647200E1,-6.975494385E-1,-6.242019653E-2,-2.844085693E-2,7.009139622E-1
1.342641900E1,-9.044192505E-1,2.468367004E-1,6.938072205E-1,1.166306562E0
1.343636700E1,-1.115480347E0,4.408332825E-1,1.122366028E0,1.642661221E0
1.344631400E1,-1.226699066E0,4.677772522E-1,1.215921478E0,1.789433206E0
1.345626100E1,-1.206341400E0,5.219645691E-1,1.169667664E0,1.759496811E0
1.346620900E1,-1.201102295E0,5.661227417E-1,8.987310791E-1,1.603389920E0
1.347615600E1,-1.122515717E0,5.331912231E-1,8.949888611E-1,1.531450122E0
1.348610300E1,-9.825567627E-1,7.002438354E-1,1.104104004E0,1.635483070E0
1.349605100E1,-9.867480469E-1,1.049916687E0,1.156944122E0,1.847841027E0
1.350599800E1,-1.090033264E0,1.434167633E0,1.151705017E0,2.138091149E0
1.351594600E1,-9.205856323E-1,1.927541656E0,1.231489105E0,2.465656132E0
1.352589300E1,-6.271957397E-2,2.859803009E0,1.380878448E0,3.176355189E0
1.353584000E1,1.216520233E0,4.277055817E0,1.704954529E0,4.762352138E0
1.354578800E1,2.902613983E0,6.297853546E0,2.103725281E0,7.246639723E0
1.355573500E1,5.066065063E0,9.581575012E0,2.934048615E0,1.122854560E1
1.356568200E1,6.517596588E0,1.422357193E1,4.129163361E0,1.618144165E1
1.357563000E1,6.137985992E0,1.967718109E1,5.592969360E0,2.135761302E1
1.358557700E1,2.657573547E0,2.497002457E1,7.158863068E0,2.611157108E1
1.359552500E1,-4.473597107E0,2.761921555E1,8.892408142E0,2.935828777E1
1.360547200E1,-8.694070587E0,2.957205460E1,1.213481552E1,3.312622864E1
1.361541900E1,-9.491612091E0,3.073109436E1,1.788016800E1,3.679933788E1
1.362536700E1,-7.698640594E0,2.994418076E1,2.464355347E1,3.953767514E1
1.363531400E1,-2.607876892E0,2.920217377E1,3.017649765E1,4.207361388E1
1.364526100E1,1.207239532E0,2.775423477E1,3.349225250E1,4.351420403E1
1.365520900E1,2.506687317E0,2.619612488E1,3.515200104E1,4.391108763E1
1.366515600E1,3.010838928E0,2.501567963E1,3.334989853E1,4.179790796E1
1.367510300E1,3.616030426E0,2.366369110E1,2.854668686E1,3.725532557E1
1.368505100E1,3.662882996E0,2.263652710E1,2.241858032E1,3.206901643E1
1.369499800E1,2.664010162E0,2.221605148E1,1.577135330E1,2.737490600E1
1.370494600E1,9.785151672E-1,2.193987579E1,9.646390228E0,2.398683985E1
1.371489300E1,-1.042282562E0,2.098321518E1,5.337450714E0,2.167648616E1
1.372484000E1,-2.563419342E0,1.923694656E1,3.498075714E0,1.971973036E1
1.373478800E1,-2.687062225E0,1.706331665E1,3.776796112E0,1.768166472E1
1.374473500E1,-1.772164764E0,1.432326462E1,5.270390167E0,1.536468320E1
1.375468300E1,-7.635621643E-1,1.111319000E1,6.581813049E0,1.293855797E1
1.376463000E1,2.426454163E-1,8.109835510E0,7.572303314E0,1.109811183E1
1.377457700E1,1.141077118E0,5.529950409E0,7.943681030E0,9.745997990E0
1.378452500E1,1.714534607E0,3.188968506E0,7.363786926E0,8.205760595E0
1.379447200E1,1.808838501E0,9.701325989E-1,6.004463654E0,6.345599873E0
1.380441900E1,1.528920593E0,-1.102307739E0,4.205354919E0,4.608436886E0
1.381436700E1,1.156345367E0,-2.615660706E0,2.115850067E0,3.557476218E0
1.382431400E1,9.840536499E-1,-3.623514862E0,1.481918335E-2,3.754789095E0
1.383426200E1,1.223256226E0,-4.239933014E0,-1.731000366E0,4.740226790E0
1.384420900E1,1.437161407E0,-4.849465485E0,-2.912792816E0,5.836703726E0
1.385415600E1,1.705253906E0,-5.449866943E0,-3.700305176E0,6.804498437E0
1.386410400E1,2.356549530E0,-5.610033875E0,-4.210743713E0,7.399741102E0
1.387405100E1,3.306623840E0,-5.449866943E0,-4.491859131E0,7.798179876E0
1.388399800E1,3.832480316E0,-5.465135193E0,-4.674030304E0,8.148752502E0
1.389394600E1,3.744912415E0,-5.541476440E0,-4.521048431E0,8.072930636E0
1.390389300E1,3.346291351E0,-5.367687836E0,-3.906276855E0,7.434294679E0
1.391384100E1,2.721490631E0,-5.040019226E0,-3.234773254E0,6.578150429E0
1.392378800E1,2.109563141E0,-4.694537659E0,-2.705324249E0,5.814440624E0
1.393373500E1,1.473236389E0,-4.394711151E0,-2.158810730E0,5.113157080E0
1.394368300E1,9.286688232E-1,-4.036206665E0,-1.662143555E0,4.462747049E0
1.395363000E1,7.155120850E-1,-3.560046844E0,-1.240470428E0,3.837272203E0
1.396357700E1,6.402186584E-1,-3.058140564E0,-8.402027893E-1,3.235435731E0
1.397352500E1,4.372407532E-1,-2.611319733E0,-4.510121155E-1,2.685811265E0
1.398347200E1,1.092727661E-1,-2.143542480E0,-1.772314453E-1,2.153630862E0
1.399342000E1,-1.040336609E-1,-1.667981415E0,9.699829102E-2,1.674035146E0
1.400336700E1,-2.818638611E-1,-1.239272919E0,2.603086853E-1,1.297306909E0
1.401331400E1,-2.799179077E-1,-8.641529846E-1,3.435356140E-1,9.711493881E-1
1.402326200E1,-2.076182556E-1,-4.986131287E-1,4.719685364E-1,7.172689115E-1
1.403320900E1,-3.902384949E-1,-7.319778442E-2,7.214996338E-1,8.235324645E-1
1.404315600E1,-8.901988220E-1,2.785707092E-1,1.053359528E0,1.406990361E0
1.405310400E1,-1.479822693E0,7.132667542E-1,1.550924835E0,2.259201742E0
1.406305100E1,-1.957928467E0,1.275497589E0,2.058369598E0,3.114042932E0
1.407299900E1,-2.138153687E0,1.975142670E0,2.552641754E0,3.871546161E0
1.408294600E1,-2.092798004E0,2.893183594E0,3.030448151E0,4.683367462E0
1.409289300E1,-1.599274292E0,4.043990479E0,3.554508362E0,5.616588550E0
1.410284100E1,-7.502398682E-1,5.730533295E0,4.308041382E0,7.208404279E0
1.411278800E1,-2.462379456E-1,7.804021454E0,5.290897522E0,9.431700831E0
1.412273500E1,1.841171265E-2,1.026415558E1,6.196813660E0,1.198973429E1
1.413268300E1,7.382647705E-1,1.356075027E1,6.769672394E0,1.517456580E1
1.414263000E1,1.112336884E0,1.748439102E1,7.328011322E0,1.899054956E1
1.415257800E1,-2.754272461E-2,2.127735352E1,8.143964539E0,2.278268399E1
1.416252500E1,-2.728076935E0,2.457394821E1,9.505832520E0,2.648928437E1
1.417247200E1,-5.228926392E0,2.780453018E1,1.125823837E1,3.044965519E1
1.418242000E1,-6.147416382E0,3.062137253E1,1.262519577E1,3.368760532E1
1.419236700E1,-5.761518860E0,3.174313980E1,1.354233856E1,3.498881189E1
1.420231400E1,-3.977229309E0,3.208098724E1,1.422806259E1,3.531919960E1
1.421226200E1,-2.383942566E0,3.228396515E1,1.553409668E1,3.590606839E1
1.422220900E1,-2.118843842E0,3.213951553E1,1.756103165E1,3.668552563E1
1.423215700E1,-2.377655640E0,3.138179123E1,1.904070465E1,3.678339980E1
1.424210400E1,-1.827549591E0,3.028098038E1,1.900492905E1,3.579755632E1
1.425205100E1,-8.026309204E-1,2.897015625E1,1.785487061E1,3.403983804E1
1.426199900E1,-1.969903564E-1,2.758149399E1,1.631517242E1,3.204625512E1
1.427194600E1,5.792953491E-2,2.606589569E1,1.407148819E1,2.962163152E1
1.428189300E1,3.926335144E-1,2.427442108E1,1.155327484E1,2.688642482E1
1.429184100E1,6.056405640E-1,2.206142303E1,8.913663940E0,2.380181908E1
1.430178800E1,6.602769470E-1,1.946836533E1,6.801855469E0,2.063294579E1
1.431173600E1,9.328601074E-1,1.705388626E1,5.392386475E0,1.791041866E1
1.432168300E1,1.173858948E0,1.466904556E1,4.404141541E0,1.536083674E1
1.433163000E1,1.062640228E0,1.232282455E1,3.755390625E0,1.292610413E1
1.434157800E1,4.439767456E-1,1.004426285E1,3.326831818E0,1.059019081E1
1.435152500E1,-6.682104492E-1,7.793393555E0,2.800526276E0,8.308214954E0
1.436147200E1,-1.523232422E0,5.727090454E0,1.874102783E0,6.215469678E0
1.437142000E1,-1.496438141E0,3.861220551E0,6.351292419E-1,4.189479729E0
1.438136700E1,-1.134341125E0,2.190245361E0,-5.324427795E-1,2.523370731E0
1.439131500E1,-8.602610779E-1,5.075944519E-1,-1.196611633E0,1.558711215E0
1.440126200E1,-3.640429688E-1,-1.039438477E0,-1.388063507E0,1.771914199E0
1.441120900E1,4.203259277E-1,-2.122136993E0,-1.230890350E0,2.489021968E0
1.442115700E1,1.496587830E0,-2.730921021E0,-1.101559296E0,3.303201119E0
1.443110400E1,2.611170044E0,-2.962040405E0,-1.291813660E0,4.154596839E0
1.444105100E1,2.994971924E0,-3.245101776E0,-1.594633942E0,4.695039911E0
1.445099900E1,2.568059692E0,-3.566633148E0,-1.882036285E0,4.780989770E0
1.446094600E1,1.688488770E0,-3.897145844E0,-2.088906097E0,4.733103499E0
1.447089400E1,1.168320465E0,-4.153412933E0,-2.019001465E0,4.763630823E0
1.448084100E1,1.162931671E0,-4.232897644E0,-1.823507996E0,4.753421289E0
1.449078800E1,1.555565186E0,-4.232598267E0,-1.701811066E0,4.819837345E0
1.450073600E1,1.890119476E0,-4.097728729E0,-1.856888580E0,4.879750770E0
1.451068300E1,1.952839050E0,-3.845652924E0,-2.061213684E0,4.780295871E0
1.452063100E1,1.743125153E0,-3.406017151E0,-2.265239410E0,4.446430896E0
1.453057800E1,1.260678406E0,-2.967878265E0,-2.425406342E0,4.034873897E0
1.454052500E1,6.472540283E-1,-2.530936890E0,-2.360591125E0,3.520933083E0
1.455047300E1,3.248245239E-1,-2.021246796E0,-2.289938049E0,3.071606396E0
1.456042000E1,1.188528442E-1,-1.528770905E0,-1.998943176E0,2.519333304E0
1.457036700E1,-2.544708252E-1,-1.152154083E0,-1.409468994E0,1.838155945E0
1.458031500E1,-6.415658569E-1,-8.045768738E-1,-5.483097839E-1,1.166016429E0
1.459026200E1,-9.526190186E-1,-5.501060486E-1,4.364923096E-1,1.183480120E0
1.460021000E1,-1.236578522E0,-4.430786133E-1,1.330583038E0,1.869731617E0
1.461015700E1,-1.332528992E0,-3.186872864E-1,2.097737732E0,2.505533614E0
1.462010400E1,-1.216669922E0,-1.046324158E-1,2.617157593E0,2.888035233E0
1.463005200E1,-1.260079651E0,4.490661621E-2,2.808459778E0,3.078516470E0
1.463999900E1,-1.379381561E0,1.597178650E-1,2.574645996E0,2.925235938E0
1.464994600E1,-1.410666504E0,2.607577515E-1,2.321971436E0,2.729381970E0
1.465989400E1,-1.372944946E0,4.430786133E-1,2.443368988E0,2.837489823E0
1.466984100E1,-1.357227631E0,8.825646973E-1,2.926115112E0,3.344119755E0
1.467978900E1,-7.783813477E-1,1.719324646E0,3.075354767E0,3.608290690E0
1.468973600E1,4.908293152E-1,3.065175934E0,2.756517792E0,4.151458450E0
1.469968300E1,1.819316711E0,4.727319489E0,2.388882294E0,5.600376903E0
1.470963100E1,2.938539276E0,6.780749359E0,2.485431519E0,7.796854801E0
1.471957800E1,3.878285065E0,9.787995758E0,3.084785156E0,1.097095508E1
1.472952500E1,5.356461182E0,1.385204453E1,3.473826141E0,1.525248445E1
1.473947300E1,6.144272919E0,1.841126358E1,3.663182373E0,1.975210423E1
1.474942000E1,3.402723999E0,2.173734695E1,4.338278503E0,2.242568714E1
1.475936800E1,4.550537109E-2,2.431528610E1,5.719007263E0,2.497883610E1
1.476931563E1,-5.239105225E-3,2.796245178E1,7.654632111E0,2.899124230E1
1.477926262E1,5.180726624E-1,2.962833755E1,1.046668442E1,3.142703085E1
1.478921062E1,1.946103058E0,2.964046234E1,1.364652191E1,3.268901781E1
1.479915763E1,3.669618988E0,3.004686722E1,1.688668396E1,3.466180071E1
1.480910562E1,3.516188049E0,3.002650955E1,2.071946365E1,3.665038920E1
1.481905262E1,2.470612335E0,2.975901581E1,2.419912766E1,3.843566998E1
1.482899963E1,1.658401337E0,2.909469727E1,2.631617523E1,3.926566926E1
1.483894763E1,1.501527557E0,2.815929245E1,2.675371536E1,3.887108980E1
1.484889462E1,1.498683472E0,2.698124222E1,2.528781372E1,3.700955291E1
1.485884163E1,1.464704132E0,2.551668777E1,2.264820282E1,3.414949200E1
1.486878963E1,1.636546783E0,2.390768372E1,1.966939728E1,3.100227113E1
1.487873662E1,1.209634552E0,2.181548447E1,1.678833847E1,2.755407206E1
1.488868463E1,2.859054565E-1,1.926374084E1,1.413735123E1,2.389640460E1
1.489863163E1,-4.028123474E-1,1.662158524E1,1.220801331E1,2.062704396E1
1.490857862E1,-6.489006042E-1,1.421204590E1,1.082309326E1,1.787575644E1
1.491852663E1,-5.243595886E-1,1.188318878E1,9.621541901E0,1.529899334E1
1.492847363E1,-2.546205139E-1,9.600286102E0,8.093070374E0,1.255898535E1
1.493842062E1,-2.462379456E-1,7.403304749E0,6.142626343E0,9.622962782E0
1.494836863E1,-4.508624268E-1,5.427563324E0,4.111799469E0,6.824120122E0
1.495831563E1,-4.390370178E-1,3.788172455E0,1.973346405E0,4.293844441E0
1.496826362E1,-4.641847229E-1,2.070344696E0,7.229965210E-2,2.122974766E0
1.497821063E1,-7.301815796E-1,2.642005920E-1,-1.204245758E0,1.432890414E0
1.498815763E1,-9.201365662E-1,-1.406325531E0,-1.912872162E0,2.546268389E0
1.499810562E1,-4.935237122E-1,-2.784509583E0,-2.061962128E0,3.499821008E0
1.500805262E1,4.546046448E-1,-3.631598053E0,-1.952389984E0,4.148131682E0
1.501799963E1,1.508413239E0,-4.023183746E0,-1.844763794E0,4.675946044E0
1.502794762E1,2.044747925E0,-4.352498932E0,-1.815574493E0,5.140189857E0
1.503789462E1,2.244582367E0,-4.591851196E0,-1.880689087E0,5.446121450E0
1.504784263E1,2.202370148E0,-4.591102753E0,-2.058519287E0,5.492372931E0
1.505778962E1,1.939367065E0,-4.547992401E0,-2.195484467E0,5.409762614E0
1.506773662E1,1.794468384E0,-4.354295197E0,-2.427352295E0,5.298305635E0
1.507768463E1,1.650018768E0,-4.063150635E0,-2.727029114E0,5.164149766E0
1.508763163E1,1.398242340E0,-3.784879303E0,-2.831511841E0,4.929285170E0
1.509757962E1,1.126407623E0,-3.338657227E0,-2.893033905E0,4.559064749E0
1.510752663E1,8.390052795E-1,-2.898722076E0,-3.055296478E0,4.294340008E0
1.511747363E1,5.671705627E-1,-2.539618835E0,-3.054697723E0,4.012795093E0
1.512742162E1,3.998185730E-1,-2.140698395E0,-2.501747589E0,3.316803508E0
1.513736863E1,2.061213684E-1,-1.745819550E0,-1.418300629E0,2.258749342E0
1.514731563E1,1.718426514E-1,-1.339414673E0,-3.882925415E-1,1.405109483E0
1.515726362E1,3.450325012E-1,-8.414002991E-1,3.884422302E-1,9.888828325E-1
1.516721063E1,5.104385376E-1,-3.080593872E-1,7.409591675E-1,9.510355275E-1
1.517715863E1,2.915936279E-1,1.092727661E-2,7.226971436E-1,7.793827112E-1
1.518710562E1,-1.686991882E-1,2.838098145E-1,9.033714294E-1,9.618146217E-1
1.519705263E1,-5.459147644E-1,6.050418091E-1,1.255738678E0,1.496989695E0
1.520700063E1,-8.725355530E-1,8.370593262E-1,1.667831726E0,2.060011959E0
1.521694762E1,-1.023721161E0,1.123264160E0,2.199226685E0,2.673261192E0
1.522689462E1,-1.064735870E0,1.523980865E0,2.564167786E0,3.167196960E0
1.523684263E1,-1.090931396E0,2.001338196E0,2.240091705E0,3.195856182E0
1.524678962E1,-1.226250000E0,2.361938324E0,1.639241180E0,3.125628474E0
1.525673762E1,-1.238374786E0,2.754422150E0,1.336420898E0,3.302489108E0
1.526668463E1,-8.102650452E-1,3.465593262E0,1.517544250E0,3.869083438E0
1.527663162E1,4.525090027E-1,4.682113495E0,2.046244812E0,5.129724067E0
1.528657962E1,2.153272247E0,6.449787598E0,2.753673706E0,7.336147511E0
1.529652663E1,3.521576843E0,8.388106842E0,3.443888397E0,9.727394674E0
1.530647363E1,4.118086395E0,1.039064255E1,4.152215424E0,1.192329573E1
1.531642162E1,3.894750824E0,1.264151184E1,5.054988098E0,1.416085486E1
1.532636863E1,2.733166351E0,1.524340118E1,5.896687775E0,1.657113167E1
1.533631663E1,4.309538269E-1,1.755594223E1,6.968608704E0,1.889334105E1
1.534626362E1,-7.732919312E-1,1.975980927E1,7.747439117E0,2.123842874E1
1.535621063E1,-4.191284180E-3,2.219284973E1,8.306376801E0,2.369638142E1
1.536615863E1,1.221609650E0,2.331326981E1,9.126221924E0,2.506568981E1
1.537610562E1,3.214864655E0,2.449715790E1,9.838291168E0,2.659394805E1
1.538605363E1,4.227508850E0,2.643188461E1,1.083940933E1,2.887921657E1
1.539600063E1,2.140099640E0,2.749826706E1,1.241757751E1,3.024782553E1
1.540594762E1,-9.461824036E-1,2.825793732E1,1.417088150E1,3.162625753E1
1.541589563E1,-2.703827362E0,2.874128220E1,1.645123947E1,3.322672516E1
1.542584263E1,-2.879112854E0,2.907269302E1,1.951551727E1,3.513354786E1
1.543578962E1,-2.884501648E0,2.915487213E1,2.237846375E1,3.686627942E1
1.544573763E1,-3.036286011E0,2.897599411E1,2.426379318E1,3.791515432E1
1.545568463E1,-3.525019684E0,2.787892548E1,2.466570740E1,3.739060538E1
1.546563262E1,-4.079616394E0,2.588043137E1,2.353286316E1,3.521697951E1
1.547557962E1,-4.291126556E0,2.325234650E1,2.113125732E1,3.171143990E1
1.548552663E1,-3.721111908E0,2.050286407E1,1.789199341E1,2.746520594E1
1.549547462E1,-2.627486115E0,1.779634232E1,1.411504761E1,2.286587090E1
1.550542162E1,-1.156944122E0,1.520777527E1,9.838889923E0,1.814989541E1
1.551536863E1,2.862048340E-1,1.266022293E1,5.847889252E0,1.394851127E1
1.552531662E1,1.304237823E0,1.028750702E1,2.783312073E0,1.073688330E1
1.553526362E1,1.872156830E0,8.086334381E0,7.581733704E-1,8.334782647E0
1.554521163E1,2.019600220E0,5.957012329E0,-3.433859253E-1,6.299420198E0
1.555515863E1,1.251846771E0,3.905678101E0,-7.161108398E-1,4.163442866E0
1.556510562E1,-8.247848511E-2,1.747017059E0,-8.692424011E-1,1.953062635E0
1.557505363E1,-9.195378113E-1,8.247848511E-2,-1.353485413E0,1.638375796E0
1.558500063E1,-9.189390564E-1,-9.081614685E-1,-1.461860046E0,1.950959005E0
1.559494862E1,-2.056723022E-1,-1.771416321E0,-1.479223938E0,2.316963603E0
1.560489563E1,1.080602875E0,-2.511776733E0,-1.577569427E0,3.156810135E0
1.561484263E1,2.348616028E0,-3.088527374E0,-1.438209229E0,4.138048377E0
1.562479062E1,3.315754852E0,-3.404520264E0,-1.124910736E0,4.883688425E0
1.563473763E1,3.872297516E0,-3.347788239E0,-7.533833313E-1,5.173969519E0
1.564468463E1,3.893703003E0,-3.163222046E0,-4.751119995E-1,5.039109862E0
1.565463262E1,3.311413879E0,-2.919528809E0,-4.342469788E-1,4.435953199E0
1.566457963E1,2.078427887E0,-2.582579498E0,-5.138813782E-1,3.354646541E0
1.567452763E1,7.378157043E-1,-2.089654541E0,-7.261399841E-1,2.332017880E0
1.568447462E1,-5.628295898E-2,-1.678010559E0,-1.015937347E0,1.962400546E0
1.569442162E1,-1.896556091E-1,-1.317859497E0,-1.551074524E0,2.044151433E0
1.570436963E1,-1.402583313E-1,-1.071322174E0,-1.865869904E0,2.156124787E0
1.571431662E1,-2.707868958E-1,-9.449848938E-1,-1.709894257E0,1.972323594E0
1.572426462E1,-2.549198914E-1,-8.607101440E-1,-1.136586456E0,1.448321399E0
1.573421163E1,-1.832189941E-1,-7.861651611E-1,-4.837939453E-1,9.411064987E-1
1.574415862E1,-1.547781372E-1,-7.346722412E-1,-1.930984497E-2,7.510475643E-1
1.575410662E1,-5.493576050E-2,-7.313790894E-1,2.231858826E-1,7.666454515E-1
1.576405363E1,-2.016307068E-1,-8.842112732E-1,5.192701721E-1,1.045048338E0
1.577400008E1,-5.409750366E-1,-9.883946228E-1,8.174501038E-1,1.392049781E0
1.578394808E1,-7.583230591E-1,-1.053209839E0,9.886940002E-1,1.631508704E0
1.579389508E1,-5.878276062E-1,-1.198108521E0,8.845106506E-1,1.601051034E0
1.580384308E1,-2.802172852E-1,-1.202000427E0,7.084767151E-1,1.423118410E0
1.581379008E1,-2.766247559E-1,-1.038839722E0,6.123765564E-1,1.237220380E0
1.582373708E1,-6.307882690E-1,-8.898994446E-1,6.319857788E-1,1.260643045E0
1.583368508E1,-8.152047729E-1,-6.854246521E-1,6.662644958E-1,1.256293817E0
1.584363208E1,-7.379653931E-1,-3.700305176E-1,7.081773376E-1,1.087672123E0
1.585358008E1,-3.326083374E-1,2.844085693E-1,8.669970703E-1,9.711850804E-1
1.586352708E1,1.127156067E-1,1.209933929E0,1.111887817E0,1.647100313E0
1.587347408E1,8.729846191E-1,2.480192413E0,1.323697357E0,2.943744426E0
1.588342208E1,1.793420563E0,4.625082092E0,1.429826660E0,5.162571641E0
1.589336908E1,3.013533325E0,7.548502808E0,1.656305695E0,8.294855411E0
1.590331608E1,4.596491547E0,1.127754822E1,2.405198364E0,1.241353324E1
1.591326408E1,5.265600128E0,1.618688919E1,3.881877594E0,1.745883444E1
1.592321108E1,3.181484070E0,2.113529892E1,6.045777740E0,2.221202669E1
1.593315908E1,-1.277443542E0,2.533361847E1,8.541837158E0,2.676540806E1
1.594310608E1,-4.758305054E0,2.951143066E1,1.046878006E1,3.167272269E1
1.595305308E1,-5.059179382E0,3.314183121E1,1.180819473E1,3.554447544E1
1.596300108E1,-3.098107452E0,3.464590347E1,1.408570862E1,3.752791074E1
1.597294808E1,4.998106384E-1,3.514182220E1,1.671349411E1,3.891707034E1
1.598289508E1,2.495161285E0,3.456596970E1,2.021037231E1,4.011846507E1
1.599284308E1,2.085014191E0,3.325454681E1,2.535247925E1,4.186836959E1
1.600279008E1,7.655081177E-1,3.188160187E1,2.929228638E1,4.330196972E1
1.601273808E1,4.843927002E-1,2.980961060E1,3.048740112E1,4.264187082E1
1.602268508E1,1.310375061E0,2.694202377E1,2.941877335E1,3.991307997E1
1.603263208E1,2.136357422E0,2.400722672E1,2.632261185E1,3.569020667E1
1.604258008E1,2.822231140E0,2.139740387E1,2.171654022E1,3.061734803E1
1.605252708E1,2.976260834E0,1.924038940E1,1.651066589E1,2.552749109E1
1.606247508E1,2.578088837E0,1.727662308E1,1.135778137E1,2.083572520E1
1.607242208E1,2.251767426E0,1.533875290E1,6.685697021E0,1.688331548E1
1.608236908E1,2.145039368E0,1.347288300E1,2.756068726E0,1.391817822E1
1.609231708E1,2.274969177E0,1.182376236E1,-1.706451416E-1,1.204184209E1
1.610226408E1,2.208357697E0,1.011371841E1,-2.063159637E0,1.055560380E1
1.611221208E1,1.603315887E0,8.160130920E0,-2.805316315E0,8.776568697E0
1.612215908E1,5.123844910E-1,6.183042297E0,-2.544259186E0,6.705654683E0
1.613210608E1,-6.096821594E-1,4.321812744E0,-1.610950012E0,4.652412027E0
1.614205408E1,-1.655706940E0,2.522554321E0,-5.360353088E-1,3.064633686E0
1.615200108E1,-2.240540771E0,6.833290100E-1,4.221221924E-1,2.380157270E0
1.616194808E1,-2.211052094E0,-1.075513458E0,1.301244049E0,2.781854891E0
1.617189608E1,-1.603016510E0,-2.417323151E0,1.599423981E0,3.312290781E0
1.618184308E1,-6.732998657E-1,-3.194656677E0,1.581760712E0,3.627827303E0
1.619179108E1,2.697390747E-1,-3.744762726E0,1.035396881E0,3.894618562E0
1.620173808E1,1.102008362E0,-4.150119781E0,-1.242416382E-2,4.293957497E0
1.621168508E1,1.986818390E0,-4.287384338E0,-1.309177551E0,4.903372068E0
1.622163308E1,2.409239960E0,-4.201163635E0,-2.474953308E0,5.438713722E0
1.623158008E1,2.150128784E0,-4.026027832E0,-3.538192291E0,5.775011566E0
1.624152808E1,1.495240631E0,-3.753594360E0,-4.313130798E0,5.910017974E0
1.625147508E1,7.345225525E-1,-3.397484894E0,-4.764741669E0,5.897897096E0
1.626142208E1,3.944297791E-1,-2.962040405E0,-4.774920502E0,5.632861086E0
1.627137008E1,3.213816833E-1,-2.685565338E0,-4.115242310E0,4.924506741E0
1.628131708E1,2.966830444E-1,-2.422262878E0,-2.956950989E0,3.833919330E0
1.629126408E1,2.519261169E-1,-2.017055511E0,-1.809137878E0,2.721205536E0
1.630121208E1,2.272274780E-1,-1.621877289E0,-8.690927124E-1,1.854033551E0
1.631115908E1,1.902543640E-1,-1.343456268E0,-8.532257080E-2,1.359540882E0
1.632110708E1,7.738906860E-2,-1.040635986E0,4.486170959E-1,1.135856339E0
1.633105408E1,-1.197509766E-1,-7.195536804E-1,7.943980408E-1,1.078501758E0
1.634100108E1,-4.105961609E-1,-3.668870544E-1,9.819580078E-1,1.125804977E0
1.635094908E1,-9.334588623E-1,-1.127156067E-1,1.131047974E0,1.470822822E0
1.636089608E1,-1.206640778E0,2.814147949E-2,1.160087585E0,1.674089936E0
1.637084308E1,-1.133892059E0,2.306703186E-1,1.066681824E0,1.573763042E0
1.638079108E1,-9.713301086E-1,4.263134766E-1,1.046473846E0,1.490078143E0
1.639073808E1,-9.090596008E-1,4.595443726E-1,1.015188904E0,1.438116441E0
1.640068608E1,-9.810598755E-1,4.703219604E-1,1.097966766E0,1.545707684E0
1.641063308E1,-1.107247467E0,5.857319641E-1,1.239871674E0,1.762487065E0
1.642058008E1,-1.303190002E0,5.930667114E-1,1.477427673E0,2.057383007E0
1.643052808E1,-1.380130005E0,5.538482666E-1,1.832639008E0,2.360100096E0
1.644047508E1,-1.096020813E0,8.969348145E-1,2.321073303E0,2.719031990E0
1.645042308E1,-5.333409119E-1,1.365310822E0,2.971620483E0,3.313465628E0
1.646037008E1,4.034111023E-1,2.098635864E0,3.798800354E0,4.358657722E0
1.647031708E1,1.920506287E0,3.551813965E0,4.525688782E0,6.065112183E0
1.648026508E1,3.692970428E0,5.556445312E0,5.536387024E0,8.669699901E0
1.649021208E1,4.985382843E0,7.863447876E0,6.898255005E0,1.158765622E1
1.650016008E1,5.530100098E0,1.071382050E1,8.564440155E0,1.478910382E1
1.651010708E1,5.603297882E0,1.447759369E1,1.030906219E1,1.863530063E1
1.652005408E1,3.710034943E0,1.865525620E1,1.190923462E1,2.244131931E1
1.653000208E1,-5.304968262E-1,2.228984802E1,1.322215439E1,2.592188493E1
